,sub,trial,lag,isRepeat,isResponse,RT,ImgFile,file,keypress
1,lts4_0402I_01_01,0,0,0,0,NA,26375702.thl.jpg,26375702.thl.jpg,NOKEY
2,lts4_0402I_01_01,1,0,0,0,NA,1/AFOOTST26.jpg,AFOOTST26.jpg,NOKEY
3,lts4_0402I_01_01,2,1,1,1,864,1-4/AFOOTST26.jpg,AFOOTST26.jpg,LEFT
4,lts4_0402I_01_01,3,0,0,0,NA,64/Ahalfchoc.jpg,Ahalfchoc.jpg,NOKEY
5,lts4_0402I_01_01,4,0,0,0,NA,Atoyhorse2.jpg,Atoyhorse2.jpg,NOKEY
6,lts4_0402I_01_01,5,0,0,0,NA,Adecorativet3.jpg,Adecorativet3.jpg,NOKEY
7,lts4_0402I_01_01,6,0,0,1,429,32/Aladder2.jpg,Aladder2.jpg,RIGHT
8,lts4_0402I_01_01,7,0,0,1,541,2/Adog120.jpg,Adog120.jpg,RIGHT
9,lts4_0402I_01_01,8,0,0,1,503,Avacuum13.jpg,Avacuum13.jpg,RIGHT
10,lts4_0402I_01_01,9,2,1,1,576,2-10/Adog120.jpg,Adog120.jpg,LEFT
11,lts4_0402I_01_01,10,0,0,1,546,2/scooter.jpg,scooter.jpg,RIGHT
12,lts4_0402I_01_01,11,0,0,1,622,AGOAT10.jpg,AGOAT10.jpg,RIGHT
13,lts4_0402I_01_01,12,2,1,1,570,2-2/scooter.jpg,scooter.jpg,RIGHT
14,lts4_0402I_01_01,13,0,0,1,685,Aabacus.jpg,Aabacus.jpg,RIGHT
15,lts4_0402I_01_01,14,0,0,1,713,batslcshi.jpg,batslcshi.jpg,RIGHT
16,lts4_0402I_01_01,15,0,0,1,547,ABROOCH41.jpg,ABROOCH41.jpg,RIGHT
17,lts4_0402I_01_01,16,0,0,1,514,Agreenleaf3.jpg,Agreenleaf3.jpg,RIGHT
18,lts4_0402I_01_01,17,0,0,1,535,256/Abinocularca3.jpg,Abinocularca3.jpg,RIGHT
19,lts4_0402I_01_01,18,0,0,1,499,948_01.jpg,948_01.jpg,RIGHT
20,lts4_0402I_01_01,19,0,0,1,571,Aboxofstaples.jpg,Aboxofstaples.jpg,RIGHT
21,lts4_0402I_01_01,20,0,0,1,523,ASHADES11.jpg,ASHADES11.jpg,RIGHT
22,lts4_0402I_01_01,21,0,0,1,478,2/35311992.thl.jpg,35311992.thl.jpg,RIGHT
23,lts4_0402I_01_01,22,0,0,1,541,512/Awindmill4.jpg,Awindmill4.jpg,RIGHT
24,lts4_0402I_01_01,23,2,1,1,594,2-9/35311992.thl.jpg,35311992.thl.jpg,LEFT
25,lts4_0402I_01_01,24,0,0,1,585,ATOILBAG2.jpg,ATOILBAG2.jpg,RIGHT
26,lts4_0402I_01_01,25,0,0,1,486,Athimble2.jpg,Athimble2.jpg,RIGHT
27,lts4_0402I_01_01,26,0,0,1,560,ABLACKB14.jpg,ABLACKB14.jpg,RIGHT
28,lts4_0402I_01_01,27,0,0,1,456,16/Adracmask.jpg,Adracmask.jpg,RIGHT
29,lts4_0402I_01_01,28,0,0,1,461,AAFRIMAS5.jpg,AAFRIMAS5.jpg,RIGHT
30,lts4_0402I_01_01,29,0,0,1,460,A4DOMINO.jpg,A4DOMINO.jpg,RIGHT
31,lts4_0402I_01_01,30,0,0,1,511,A100FRAN3.jpg,A100FRAN3.jpg,RIGHT
32,lts4_0402I_01_01,31,0,0,1,406,4/Aegyptianst20.jpg,Aegyptianst20.jpg,RIGHT
33,lts4_0402I_01_01,32,0,0,1,438,Alei23.jpg,Alei23.jpg,RIGHT
34,lts4_0402I_01_01,33,0,0,1,421,ADRUM.jpg,ADRUM.jpg,RIGHT
35,lts4_0402I_01_01,34,0,0,1,440,26426417.thl.jpg,26426417.thl.jpg,RIGHT
36,lts4_0402I_01_01,35,4,1,1,625,4-0/Aegyptianst20.jpg,Aegyptianst20.jpg,LEFT
37,lts4_0402I_01_01,36,0,0,1,636,ALARGECA2.jpg,ALARGECA2.jpg,RIGHT
38,lts4_0402I_01_01,37,0,0,1,522,128/AFISHHOO9.jpg,AFISHHOO9.jpg,RIGHT
39,lts4_0402I_01_01,38,32,1,1,612,32-3/Aladder2.jpg,Aladder2.jpg,LEFT
40,lts4_0402I_01_01,39,0,0,1,644,26378986.thl.jpg,26378986.thl.jpg,RIGHT
41,lts4_0402I_01_01,40,0,0,1,622,ASWANWHIT.jpg,ASWANWHIT.jpg,RIGHT
42,lts4_0402I_01_01,41,0,0,1,539,8/Apinkshoe.jpg,Apinkshoe.jpg,RIGHT
43,lts4_0402I_01_01,42,0,0,1,541,dftslturapr.jpg,dftslturapr.jpg,RIGHT
44,lts4_0402I_01_01,43,16,1,1,499,16-1/Adracmask.jpg,Adracmask.jpg,LEFT
45,lts4_0402I_01_01,44,0,0,1,541,pinkhoodie.jpg,pinkhoodie.jpg,RIGHT
46,lts4_0402I_01_01,45,0,0,1,601,ASTAMPS.jpg,ASTAMPS.jpg,RIGHT
47,lts4_0402I_01_01,46,0,0,1,577,Acrackersandc.jpg,Acrackersandc.jpg,RIGHT
48,lts4_0402I_01_01,47,0,0,1,508,APERSRUG.jpg,APERSRUG.jpg,RIGHT
49,lts4_0402I_01_01,48,0,0,1,589,35314138.thl.jpg,35314138.thl.jpg,RIGHT
50,lts4_0402I_01_01,49,8,1,1,553,8-first/Apinkshoe.jpg,Apinkshoe.jpg,LEFT
51,lts4_0402I_01_01,50,0,0,1,528,vatslheart.jpg,vatslheart.jpg,RIGHT
52,lts4_0402I_01_01,51,0,0,1,805,64/ACHAIR.jpg,ACHAIR.jpg,RIGHT
53,lts4_0402I_01_01,52,0,0,1,580,AMINCOLLE.jpg,AMINCOLLE.jpg,RIGHT
54,lts4_0402I_01_01,53,0,0,1,506,Atoybucketan4.jpg,Atoybucketan4.jpg,RIGHT
55,lts4_0402I_01_01,54,0,0,1,494,Azucchini9.jpg,Azucchini9.jpg,RIGHT
56,lts4_0402I_01_01,55,0,0,1,513,AFRYINGP2.jpg,AFRYINGP2.jpg,RIGHT
57,lts4_0402I_01_01,56,0,0,1,781,Aradio24.jpg,Aradio24.jpg,RIGHT
58,lts4_0402I_01_01,57,0,0,1,539,Acactusplant.jpg,Acactusplant.jpg,RIGHT
59,lts4_0402I_01_01,58,0,0,1,591,AHEDGEHOG.jpg,AHEDGEHOG.jpg,RIGHT
60,lts4_0402I_01_01,59,0,0,1,498,ACOATHA44.jpg,ACOATHA44.jpg,RIGHT
61,lts4_0402I_01_01,60,0,0,1,401,AFOODBLEN.jpg,AFOODBLEN.jpg,RIGHT
62,lts4_0402I_01_01,61,0,0,1,347,Agolfplaque.jpg,Agolfplaque.jpg,RIGHT
63,lts4_0402I_01_01,62,0,0,1,506,AFISHNET3.jpg,AFISHNET3.jpg,RIGHT
64,lts4_0402I_01_01,63,0,0,1,445,Aplasticbot10.jpg,Aplasticbot10.jpg,RIGHT
65,lts4_0402I_01_01,64,0,0,1,490,ACOMB11.jpg,ACOMB11.jpg,RIGHT
66,lts4_0402I_01_01,65,16,1,1,557,16-mul/Apinkshoe.jpg,Apinkshoe.jpg,LEFT
67,lts4_0402I_01_01,66,8,1,1,615,8/tape-a.jpg,tape-a.jpg,RIGHT
68,lts4_0402I_01_01,67,64,1,1,812,64-first/Ahalfchoc.jpg,Ahalfchoc.jpg,LEFT
69,lts4_0402I_01_01,68,0,0,1,969,AANTFRYI2.jpg,AANTFRYI2.jpg,RIGHT
70,lts4_0402I_01_01,69,0,0,1,665,moto.jpg,moto.jpg,RIGHT
71,lts4_0402I_01_01,70,0,0,1,925,caramel.jpg,caramel.jpg,RIGHT
72,lts4_0402I_01_01,71,0,0,1,602,Astonehome.jpg,Astonehome.jpg,RIGHT
73,lts4_0402I_01_01,72,0,0,1,624,Aceramicjug10.jpg,Aceramicjug10.jpg,RIGHT
74,lts4_0402I_01_01,73,0,0,1,603,ACDRAINER.jpg,ACDRAINER.jpg,RIGHT
75,lts4_0402I_01_01,74,8,1,1,621,8-first/tape-a.jpg,tape-a.jpg,LEFT
76,lts4_0402I_01_01,75,0,0,1,585,26427111.thl.jpg,26427111.thl.jpg,RIGHT
77,lts4_0402I_01_01,76,2,1,1,454,2-mul/tape-a.jpg,tape-a.jpg,LEFT
78,lts4_0402I_01_01,77,0,0,1,707,Anetworkplug4.jpg,Anetworkplug4.jpg,RIGHT
79,lts4_0402I_01_01,78,0,0,1,1052,2/Adigitalcamer.jpg,Adigitalcamer.jpg,RIGHT
80,lts4_0402I_01_01,79,0,0,1,595,32/AWINTGLO3.jpg,AWINTGLO3.jpg,RIGHT
81,lts4_0402I_01_01,80,2,1,1,680,2-1/Adigitalcamer.jpg,Adigitalcamer.jpg,LEFT
82,lts4_0402I_01_01,81,0,0,1,902,26437077.thl.jpg,26437077.thl.jpg,RIGHT
83,lts4_0402I_01_01,82,0,0,1,557,Aextensionco8.jpg,Aextensionco8.jpg,RIGHT
84,lts4_0402I_01_01,83,16,1,1,523,16-mul/Ahalfchoc.jpg,Ahalfchoc.jpg,LEFT
85,lts4_0402I_01_01,84,0,0,1,565,256/AAIRBLOW.jpg,AAIRBLOW.jpg,RIGHT
86,lts4_0402I_01_01,85,0,0,1,621,Adriedleaf.jpg,Adriedleaf.jpg,RIGHT
87,lts4_0402I_01_01,86,0,0,1,635,playjukebox.jpg,playjukebox.jpg,RIGHT
88,lts4_0402I_01_01,87,0,0,1,693,512/Aantiquesofa4.jpg,Aantiquesofa4.jpg,RIGHT
89,lts4_0402I_01_01,88,0,0,1,510,26423652.thl.jpg,26423652.thl.jpg,RIGHT
90,lts4_0402I_01_01,89,0,0,1,556,8027656.thl.jpg,8027656.thl.jpg,RIGHT
91,lts4_0402I_01_01,90,0,0,1,492,confettipopper.jpg,confettipopper.jpg,RIGHT
92,lts4_0402I_01_01,91,0,0,1,802,23077768.thl.jpg,23077768.thl.jpg,RIGHT
93,lts4_0402I_01_01,92,0,0,1,577,ABELL7.jpg,ABELL7.jpg,RIGHT
94,lts4_0402I_01_01,93,0,0,1,559,26383637.thl.jpg,26383637.thl.jpg,RIGHT
95,lts4_0402I_01_01,94,0,0,1,474,10049507.thl-1.jpg,10049507.thl-1.jpg,RIGHT
96,lts4_0402I_01_01,95,0,0,1,488,ABAGFLOU3.jpg,ABAGFLOU3.jpg,RIGHT
97,lts4_0402I_01_01,96,0,0,1,455,Afloppydisk6.jpg,Afloppydisk6.jpg,RIGHT
98,lts4_0402I_01_01,97,0,0,1,470,2/Ababybottle15.jpg,Ababybottle15.jpg,RIGHT
99,lts4_0402I_01_01,98,0,0,1,731,23048010.thl.jpg,23048010.thl.jpg,LEFT
100,lts4_0402I_01_01,99,2,1,1,725,2-6/Ababybottle15.jpg,Ababybottle15.jpg,LEFT
101,lts4_0402I_01_01,100,0,0,1,672,8026084.thl.jpg,8026084.thl.jpg,RIGHT
102,lts4_0402I_01_01,101,0,0,1,576,32/Aberries5.jpg,Aberries5.jpg,RIGHT
103,lts4_0402I_01_01,102,0,0,1,624,128/Acanopener5.jpg,Acanopener5.jpg,RIGHT
104,lts4_0402I_01_01,103,0,0,1,828,512/Acucumber2.jpg,Acucumber2.jpg,LEFT
105,lts4_0402I_01_01,104,0,0,1,595,AARCH.jpg,AARCH.jpg,RIGHT
106,lts4_0402I_01_01,105,0,0,1,997,Atray22.jpg,Atray22.jpg,RIGHT
107,lts4_0402I_01_01,106,0,0,1,564,AGRENADIN.jpg,AGRENADIN.jpg,RIGHT
108,lts4_0402I_01_01,107,0,0,1,655,26377183.thl.jpg,26377183.thl.jpg,RIGHT
109,lts4_0402I_01_01,108,0,0,1,590,Achampagnebo2.jpg,Achampagnebo2.jpg,RIGHT
110,lts4_0402I_01_01,109,0,0,1,526,64/Aorcatoy4.jpg,Aorcatoy4.jpg,RIGHT
111,lts4_0402I_01_01,110,0,0,1,625,AFLOURSCO.jpg,AFLOURSCO.jpg,RIGHT
112,lts4_0402I_01_01,111,32,1,1,659,32-7/AWINTGLO3.jpg,AWINTGLO3.jpg,LEFT
113,lts4_0402I_01_01,112,0,0,1,587,1/AEGGHOLDE.jpg,AEGGHOLDE.jpg,RIGHT
114,lts4_0402I_01_01,113,1,1,1,723,1-0/AEGGHOLDE.jpg,AEGGHOLDE.jpg,LEFT
115,lts4_0402I_01_01,114,0,0,1,643,Abeverage11.jpg,Abeverage11.jpg,RIGHT
116,lts4_0402I_01_01,115,64,1,1,619,64-first/ACHAIR.jpg,ACHAIR.jpg,LEFT
117,lts4_0402I_01_01,116,0,0,1,658,Ababseat2.jpg,Ababseat2.jpg,RIGHT
118,lts4_0402I_01_01,117,0,0,1,656,Arake3.jpg,Arake3.jpg,RIGHT
119,lts4_0402I_01_01,118,0,0,1,621,AHEARTSPO.jpg,AHEARTSPO.jpg,RIGHT
120,lts4_0402I_01_01,119,4,1,1,541,4-mul/ACHAIR.jpg,ACHAIR.jpg,LEFT
121,lts4_0402I_01_01,120,0,0,1,732,AALTAR.jpg,AALTAR.jpg,RIGHT
122,lts4_0402I_01_01,121,0,0,1,605,2/26421572.thl.jpg,26421572.thl.jpg,RIGHT
123,lts4_0402I_01_01,122,0,0,1,545,AMECHSOCK.jpg,AMECHSOCK.jpg,RIGHT
124,lts4_0402I_01_01,123,2,1,1,658,2-12/26421572.thl.jpg,26421572.thl.jpg,LEFT
125,lts4_0402I_01_01,124,0,0,1,601,23057742.thl.jpg,23057742.thl.jpg,RIGHT
126,lts4_0402I_01_01,125,0,0,1,685,26423242.thl.jpg,26423242.thl.jpg,RIGHT
127,lts4_0402I_01_01,126,0,0,1,658,AFOODTAB2.jpg,AFOODTAB2.jpg,RIGHT
128,lts4_0402I_01_01,127,0,0,1,752,26428540.thl.jpg,26428540.thl.jpg,RIGHT
129,lts4_0402I_01_01,128,0,0,1,411,512/ABOXVIALS.jpg,ABOXVIALS.jpg,RIGHT
130,lts4_0402I_01_01,129,0,0,1,466,64/AGRAINSI5.jpg,AGRAINSI5.jpg,RIGHT
131,lts4_0402I_01_01,130,0,0,1,597,ball8.JPG,ball8.JPG,RIGHT
132,lts4_0402I_01_01,131,0,0,1,606,4/ABOTTLE19.jpg,ABOTTLE19.jpg,RIGHT
133,lts4_0402I_01_01,132,0,0,1,495,Aelectronicor.jpg,Aelectronicor.jpg,RIGHT
134,lts4_0402I_01_01,133,32,1,1,650,32-9/Aberries5.jpg,Aberries5.jpg,LEFT
135,lts4_0402I_01_01,134,0,0,1,605,AFLOURBA2.jpg,AFLOURBA2.jpg,RIGHT
136,lts4_0402I_01_01,135,4,1,1,684,4-9/ABOTTLE19.jpg,ABOTTLE19.jpg,LEFT
137,lts4_0402I_01_01,136,0,0,1,592,256/AFIREPLAC.jpg,AFIREPLAC.jpg,RIGHT
138,lts4_0402I_01_01,137,0,0,1,584,Alogholder.jpg,Alogholder.jpg,RIGHT
139,lts4_0402I_01_01,138,0,0,1,719,ABATHTUB3.jpg,ABATHTUB3.jpg,RIGHT
140,lts4_0402I_01_01,139,0,0,1,495,ACHESSPI4.jpg,ACHESSPI4.jpg,RIGHT
141,lts4_0402I_01_01,140,0,0,1,712,Anailpolish.jpg,Anailpolish.jpg,RIGHT
142,lts4_0402I_01_01,141,0,0,1,465,Atoyslide.jpg,Atoyslide.jpg,RIGHT
143,lts4_0402I_01_01,142,0,0,1,437,16/26428753.thl.jpg,26428753.thl.jpg,RIGHT
144,lts4_0402I_01_01,143,0,0,1,584,2/Acamcorde.jpg,Acamcorde.jpg,RIGHT
145,lts4_0402I_01_01,144,0,0,1,556,ACREAME11.jpg,ACREAME11.jpg,RIGHT
146,lts4_0402I_01_01,145,2,1,1,577,2-7/Acamcorde.jpg,Acamcorde.jpg,LEFT
147,lts4_0402I_01_01,146,0,0,1,532,DSCN1248-sm.jpg,DSCN1248-sm.jpg,RIGHT
148,lts4_0402I_01_01,147,0,0,1,678,Amilk4.jpg,Amilk4.jpg,RIGHT
149,lts4_0402I_01_01,148,0,0,1,475,Awomensshoe61.jpg,Awomensshoe61.jpg,RIGHT
150,lts4_0402I_01_01,149,0,0,1,624,512/Awaxlips.jpg,Awaxlips.jpg,RIGHT
151,lts4_0402I_01_01,150,0,0,1,990,Apolicehelme5.jpg,Apolicehelme5.jpg,RIGHT
152,lts4_0402I_01_01,151,0,0,1,445,Aboxofchocola.jpg,Aboxofchocola.jpg,RIGHT
153,lts4_0402I_01_01,152,0,0,1,372,512/AFETTUCI2.jpg,AFETTUCI2.jpg,RIGHT
154,lts4_0402I_01_01,153,0,0,1,497,ADOGTOY5.jpg,ADOGTOY5.jpg,RIGHT
155,lts4_0402I_01_01,154,0,0,1,550,32/ASATELLIT.jpg,ASATELLIT.jpg,RIGHT
156,lts4_0402I_01_01,155,0,0,1,502,ACONSTHA2.jpg,ACONSTHA2.jpg,RIGHT
157,lts4_0402I_01_01,156,0,0,1,346,32/Akitchensinka.jpg,Akitchensinka.jpg,RIGHT
158,lts4_0402I_01_01,157,0,0,1,472,AHORSHOE2.jpg,AHORSHOE2.jpg,RIGHT
159,lts4_0402I_01_01,158,16,1,1,431,16-first/26428753.thl.jpg,26428753.thl.jpg,RIGHT
160,lts4_0402I_01_01,159,0,0,1,621,Abells7.jpg,Abells7.jpg,RIGHT
161,lts4_0402I_01_01,160,2,1,1,584,2-mul/26428753.thl.jpg,26428753.thl.jpg,LEFT
162,lts4_0402I_01_01,161,0,0,1,722,Abasket110.jpg,Abasket110.jpg,RIGHT
163,lts4_0402I_01_01,162,0,0,1,743,8022057.thl.jpg,8022057.thl.jpg,RIGHT
164,lts4_0402I_01_01,163,0,0,1,579,Abootscrubber.jpg,Abootscrubber.jpg,RIGHT
165,lts4_0402I_01_01,164,0,0,1,603,hairbarette.jpg,hairbarette.jpg,RIGHT
166,lts4_0402I_01_01,165,128,1,1,729,128-5/AFISHHOO9.jpg,AFISHHOO9.jpg,LEFT
167,lts4_0402I_01_01,166,0,0,1,707,Aantiquemailb.jpg,Aantiquemailb.jpg,RIGHT
168,lts4_0402I_01_01,167,0,0,1,725,Amountaingoa2.jpg,Amountaingoa2.jpg,RIGHT
169,lts4_0402I_01_01,168,0,0,1,598,256/Aeggsandwich6.jpg,Aeggsandwich6.jpg,RIGHT
170,lts4_0402I_01_01,169,0,0,1,887,8253370.thl.jpg,8253370.thl.jpg,LEFT
171,lts4_0402I_01_01,170,0,0,1,836,AORIGIRL3.jpg,AORIGIRL3.jpg,RIGHT
172,lts4_0402I_01_01,171,0,0,1,795,AICEUBETR.jpg,AICEUBETR.jpg,RIGHT
173,lts4_0402I_01_01,172,0,0,1,583,AEMERGLI4.jpg,AEMERGLI4.jpg,RIGHT
174,lts4_0402I_01_01,173,64,1,1,627,64-first/Aorcatoy4.jpg,Aorcatoy4.jpg,LEFT
175,lts4_0402I_01_01,174,0,0,1,631,16/AREDPLUM.jpg,AREDPLUM.jpg,RIGHT
176,lts4_0402I_01_01,175,2,1,1,541,2-mul/Aorcatoy4.jpg,Aorcatoy4.jpg,LEFT
177,lts4_0402I_01_01,176,0,0,1,760,Aham6.jpg,Aham6.jpg,RIGHT
178,lts4_0402I_01_01,177,0,0,1,700,4/Anailbrush3.jpg,Anailbrush3.jpg,RIGHT
179,lts4_0402I_01_01,178,0,0,1,597,64/AMIXER1.jpg,AMIXER1.jpg,RIGHT
180,lts4_0402I_01_01,179,0,0,1,486,seasponge.jpg,seasponge.jpg,RIGHT
181,lts4_0402I_01_01,180,0,0,1,567,32/AHYPONEE3.jpg,AHYPONEE3.jpg,RIGHT
182,lts4_0402I_01_01,181,4,1,1,661,4-6/Anailbrush3.jpg,Anailbrush3.jpg,LEFT
183,lts4_0402I_01_01,182,0,0,1,642,1/Atoyhelicopte.jpg,Atoyhelicopte.jpg,RIGHT
184,lts4_0402I_01_01,183,1,1,1,585,1-9/Atoyhelicopte.jpg,Atoyhelicopte.jpg,LEFT
185,lts4_0402I_01_01,184,0,0,1,723,AMEATGR14.jpg,AMEATGR14.jpg,RIGHT
186,lts4_0402I_01_01,185,0,0,1,851,22824636.thl.jpg,22824636.thl.jpg,RIGHT
187,lts4_0402I_01_01,186,32,1,1,758,32-6/ASATELLIT.jpg,ASATELLIT.jpg,LEFT
188,lts4_0402I_01_01,187,0,0,1,627,Areindeertoy4.jpg,Areindeertoy4.jpg,RIGHT
189,lts4_0402I_01_01,188,32,1,1,551,32-2/Akitchensinka.jpg,Akitchensinka.jpg,LEFT
190,lts4_0402I_01_01,189,0,0,1,646,ACUSHIO60.jpg,ACUSHIO60.jpg,RIGHT
191,lts4_0402I_01_01,190,16,1,1,628,16-first/AREDPLUM.jpg,AREDPLUM.jpg,LEFT
192,lts4_0402I_01_01,191,0,0,1,568,pacifierthermometer.jpg,pacifierthermometer.jpg,RIGHT
193,lts4_0402I_01_01,192,0,0,1,890,ACEDAR.jpg,ACEDAR.jpg,RIGHT
194,lts4_0402I_01_01,193,64,1,1,680,64-first/AGRAINSI5.jpg,AGRAINSI5.jpg,LEFT
195,lts4_0402I_01_01,194,0,0,1,557,ACAFLATT3.jpg,ACAFLATT3.jpg,RIGHT
196,lts4_0402I_01_01,195,0,0,1,563,Acarnivalgame.jpg,Acarnivalgame.jpg,RIGHT
197,lts4_0402I_01_01,196,0,0,1,615,AORIENBOW.jpg,AORIENBOW.jpg,RIGHT
198,lts4_0402I_01_01,197,4,1,1,630,4-mul/AGRAINSI5.jpg,AGRAINSI5.jpg,LEFT
199,lts4_0402I_01_01,198,0,0,1,881,potato.jpg,potato.jpg,RIGHT
200,lts4_0402I_01_01,199,0,0,1,591,16/26391173.thl.jpg,26391173.thl.jpg,RIGHT
201,lts4_0402I_01_01,200,0,0,1,474,Adaisies3.jpg,Adaisies3.jpg,RIGHT
202,lts4_0402I_01_01,201,0,0,1,512,bathtowel.jpg,bathtowel.jpg,RIGHT
203,lts4_0402I_01_01,202,0,0,1,470,22827408.thl.jpg,22827408.thl.jpg,RIGHT
204,lts4_0402I_01_01,203,0,0,1,544,AGAUGE.jpg,AGAUGE.jpg,RIGHT
205,lts4_0402I_01_01,204,0,0,1,533,ALOAFBR4.jpg,ALOAFBR4.jpg,RIGHT
206,lts4_0402I_01_01,205,0,0,1,477,64/Awoodenspoon3.jpg,Awoodenspoon3.jpg,RIGHT
207,lts4_0402I_01_01,206,16,1,1,500,16-mul/AREDPLUM.jpg,AREDPLUM.jpg,LEFT
208,lts4_0402I_01_01,207,0,0,1,510,23007415.thl.jpg,23007415.thl.jpg,RIGHT
209,lts4_0402I_01_01,208,0,0,1,486,ATHISEND4.jpg,ATHISEND4.jpg,RIGHT
210,lts4_0402I_01_01,209,0,0,1,476,gytsl9.jpg,gytsl9.jpg,RIGHT
211,lts4_0402I_01_01,210,0,0,1,539,ABALLBEAR.jpg,ABALLBEAR.jpg,RIGHT
212,lts4_0402I_01_01,211,0,0,1,524,oignonrings.jpg,oignonrings.jpg,RIGHT
213,lts4_0402I_01_01,212,32,1,1,592,32-8/AHYPONEE3.jpg,AHYPONEE3.jpg,LEFT
214,lts4_0402I_01_01,213,0,0,1,602,Aclimbersicep.jpg,Aclimbersicep.jpg,RIGHT
215,lts4_0402I_01_01,214,0,0,1,754,Atoytheatre2.jpg,Atoytheatre2.jpg,RIGHT
216,lts4_0402I_01_01,215,16,1,1,586,16-first/26391173.thl.jpg,26391173.thl.jpg,LEFT
217,lts4_0402I_01_01,216,0,0,1,587,showercurtainsuchi.jpg,showercurtainsuchi.jpg,RIGHT
218,lts4_0402I_01_01,217,2,1,1,584,2-mul/26391173.thl.jpg,26391173.thl.jpg,LEFT
219,lts4_0402I_01_01,218,0,0,1,553,ALAZQUART.jpg,ALAZQUART.jpg,RIGHT
220,lts4_0402I_01_01,219,0,0,1,760,mangosplitter.jpg,mangosplitter.jpg,RIGHT
221,lts4_0402I_01_01,220,0,0,1,494,AARTPLANT.jpg,AARTPLANT.jpg,RIGHT
222,lts4_0402I_01_01,221,0,0,1,504,2/lollipops.jpg,lollipops.jpg,RIGHT
223,lts4_0402I_01_01,222,0,0,1,561,burrito.jpg,burrito.jpg,RIGHT
224,lts4_0402I_01_01,223,2,1,1,707,2-8/lollipops.jpg,lollipops.jpg,LEFT
225,lts4_0402I_01_01,224,0,0,1,613,Abeany2.jpg,Abeany2.jpg,RIGHT
226,lts4_0402I_01_01,225,0,0,1,877,26772987.thl.jpg,26772987.thl.jpg,RIGHT
227,lts4_0402I_01_01,226,0,0,1,568,ACAROUSE2.jpg,ACAROUSE2.jpg,RIGHT
228,lts4_0402I_01_01,227,0,0,1,615,ASHOWCAP.jpg,ASHOWCAP.jpg,RIGHT
229,lts4_0402I_01_01,228,0,0,1,505,gingerbreadcookie.jpg,gingerbreadcookie.jpg,RIGHT
230,lts4_0402I_01_01,229,0,0,1,536,Alambtoy6.jpg,Alambtoy6.jpg,RIGHT
231,lts4_0402I_01_01,230,128,1,1,506,128-4/Acanopener5.jpg,Acanopener5.jpg,RIGHT
232,lts4_0402I_01_01,231,0,0,1,627,asparagus.jpg,asparagus.jpg,RIGHT
233,lts4_0402I_01_01,232,0,0,1,719,apparatus.jpg,apparatus.jpg,RIGHT
234,lts4_0402I_01_01,233,0,0,1,688,AFENCIN50.jpg,AFENCIN50.jpg,RIGHT
235,lts4_0402I_01_01,234,0,0,1,809,128/ABUDDHA18.jpg,ABUDDHA18.jpg,RIGHT
236,lts4_0402I_01_01,235,0,0,1,644,Acamera101.jpg,Acamera101.jpg,RIGHT
237,lts4_0402I_01_01,236,0,0,1,744,chocolatbox.jpg,chocolatbox.jpg,RIGHT
238,lts4_0402I_01_01,237,0,0,1,626,AROOSTERP.jpg,AROOSTERP.jpg,RIGHT
239,lts4_0402I_01_01,238,0,0,1,598,26377777.thl.jpg,26377777.thl.jpg,RIGHT
240,lts4_0402I_01_01,239,0,0,1,518,Ajewisho2.jpg,Ajewisho2.jpg,RIGHT
241,lts4_0402I_01_01,240,0,0,1,483,APILL.jpg,APILL.jpg,RIGHT
242,lts4_0402I_01_01,241,0,0,1,598,26442809.thl.jpg,26442809.thl.jpg,RIGHT
243,lts4_0402I_01_01,242,64,1,1,636,64-first/AMIXER1.jpg,AMIXER1.jpg,RIGHT
244,lts4_0402I_01_01,243,0,0,1,812,Asaltgrinder.jpg,Asaltgrinder.jpg,RIGHT
245,lts4_0402I_01_01,244,0,0,1,531,23041782.thl.jpg,23041782.thl.jpg,RIGHT
246,lts4_0402I_01_01,245,0,0,1,668,ASPIDERW2.jpg,ASPIDERW2.jpg,RIGHT
247,lts4_0402I_01_01,246,4,1,1,610,4-mul/AMIXER1.jpg,AMIXER1.jpg,LEFT
248,lts4_0402I_01_01,247,0,0,1,748,26374787.thl.jpg,26374787.thl.jpg,RIGHT
249,lts4_0402I_01_01,248,0,0,1,577,8/lightsaber.jpg,lightsaber.jpg,RIGHT
250,lts4_0402I_01_01,249,0,0,1,537,A1991CHE7.jpg,A1991CHE7.jpg,RIGHT
251,lts4_0402I_01_01,250,0,0,1,543,22852032.thl.jpg,22852032.thl.jpg,RIGHT
252,lts4_0402I_01_01,251,0,0,1,721,64/Abowl74.jpg,Abowl74.jpg,RIGHT
253,lts4_0402I_01_01,252,0,0,1,671,AEAREXAM2.jpg,AEAREXAM2.jpg,RIGHT
254,lts4_0402I_01_01,253,0,0,1,497,Ahawk3.jpg,Ahawk3.jpg,RIGHT
255,lts4_0402I_01_01,254,0,0,1,555,Awastepaperb3.jpg,Awastepaperb3.jpg,RIGHT
256,lts4_0402I_01_01,255,0,0,1,571,256/ARIBBON9.jpg,ARIBBON9.jpg,RIGHT
257,lts4_0402I_01_01,256,8,1,1,697,8-first/lightsaber.jpg,lightsaber.jpg,LEFT
258,lts4_0402I_01_01,257,0,0,1,784,E_helicopter.jpg,E_helicopter.jpg,RIGHT
259,lts4_0402I_01_01,258,0,0,1,612,Aclock213.jpg,Aclock213.jpg,RIGHT
260,lts4_0402I_01_01,259,0,0,1,768,23076640.thl.jpg,23076640.thl.jpg,RIGHT
261,lts4_0402I_01_01,260,4,1,1,547,4-mul/lightsaber.jpg,lightsaber.jpg,LEFT
262,lts4_0402I_01_01,261,0,0,1,607,4/gameboy.jpg,gameboy.jpg,RIGHT
263,lts4_0402I_01_01,262,0,0,1,494,ASMOKMEAT.jpg,ASMOKMEAT.jpg,RIGHT
264,lts4_0402I_01_01,263,0,0,1,488,Amixer29.jpg,Amixer29.jpg,RIGHT
265,lts4_0402I_01_01,264,0,0,1,491,Ahulahoop2.jpg,Ahulahoop2.jpg,RIGHT
266,lts4_0402I_01_01,265,4,1,1,729,4-12/gameboy.jpg,gameboy.jpg,LEFT
267,lts4_0402I_01_01,266,0,0,1,489,128/AMEAT2.jpg,AMEAT2.jpg,RIGHT
268,lts4_0402I_01_01,267,0,0,1,458,26684827.thl.jpg,26684827.thl.jpg,RIGHT
269,lts4_0402I_01_01,268,0,0,1,576,ASPACEHE8.jpg,ASPACEHE8.jpg,RIGHT
270,lts4_0402I_01_01,269,64,1,1,667,64-first/Awoodenspoon3.jpg,Awoodenspoon3.jpg,LEFT
271,lts4_0402I_01_01,270,0,0,1,642,Ametalstool2.jpg,Ametalstool2.jpg,RIGHT
272,lts4_0402I_01_01,271,0,0,1,577,Asandal7.jpg,Asandal7.jpg,RIGHT
273,lts4_0402I_01_01,272,0,0,1,573,26554880.thl.jpg,26554880.thl.jpg,RIGHT
274,lts4_0402I_01_01,273,256,1,1,802,256-4/Abinocularca3.jpg,Abinocularca3.jpg,LEFT
275,lts4_0402I_01_01,274,0,0,1,710,4/corkscrew02.jpg,corkscrew02.jpg,RIGHT
276,lts4_0402I_01_01,275,0,0,1,717,26424291.thl.jpg,26424291.thl.jpg,RIGHT
277,lts4_0402I_01_01,276,0,0,1,1005,AMAKEUPMI.jpg,AMAKEUPMI.jpg,RIGHT
278,lts4_0402I_01_01,277,0,0,1,562,8023888.thl.jpg,8023888.thl.jpg,RIGHT
279,lts4_0402I_01_01,278,4,1,1,623,4-5/corkscrew02.jpg,corkscrew02.jpg,LEFT
280,lts4_0402I_01_01,279,0,0,1,604,Amonkey5.jpg,Amonkey5.jpg,RIGHT
281,lts4_0402I_01_01,280,0,0,1,580,DSCN3757-sm.jpg,DSCN3757-sm.jpg,RIGHT
282,lts4_0402I_01_01,281,0,0,1,502,1/Aleaf75.jpg,Aleaf75.jpg,RIGHT
283,lts4_0402I_01_01,282,1,1,1,610,1-7/Aleaf75.jpg,Aleaf75.jpg,LEFT
284,lts4_0402I_01_01,283,0,0,1,646,ACHOPBOWL.jpg,ACHOPBOWL.jpg,RIGHT
285,lts4_0402I_01_01,284,0,0,1,724,ASHOTCAS2.jpg,ASHOTCAS2.jpg,RIGHT
286,lts4_0402I_01_01,285,16,1,1,563,16-mul/Awoodenspoon3.jpg,Awoodenspoon3.jpg,LEFT
287,lts4_0402I_01_01,286,0,0,1,807,ADART3.jpg,ADART3.jpg,RIGHT
288,lts4_0402I_01_01,287,0,0,1,806,AMEASDEVI.jpg,AMEASDEVI.jpg,RIGHT
289,lts4_0402I_01_01,288,0,0,1,1011,Aembossedsta2.jpg,Aembossedsta2.jpg,RIGHT
290,lts4_0402I_01_01,289,0,0,1,629,64/Aseahorse4.jpg,Aseahorse4.jpg,RIGHT
291,lts4_0402I_01_01,290,0,0,1,563,cigarette03.jpg,cigarette03.jpg,RIGHT
292,lts4_0402I_01_01,291,0,0,1,481,Abloodorange.jpg,Abloodorange.jpg,RIGHT
293,lts4_0402I_01_01,292,0,0,1,646,128/AANTRAD24.jpg,AANTRAD24.jpg,LEFT
294,lts4_0402I_01_01,293,0,0,1,506,ABOWARRO8.jpg,ABOWARRO8.jpg,RIGHT
295,lts4_0402I_01_01,294,0,0,1,508,AHOUSBOA3.jpg,AHOUSBOA3.jpg,RIGHT
296,lts4_0402I_01_01,295,0,0,1,650,Acroissant.jpg,Acroissant.jpg,RIGHT
297,lts4_0402I_01_01,296,0,0,1,499,Awoodenegg.jpg,Awoodenegg.jpg,RIGHT
298,lts4_0402I_01_01,297,0,0,1,552,8/Apitchfork4.jpg,Apitchfork4.jpg,RIGHT
299,lts4_0402I_01_01,298,0,0,1,709,Acabinetdraw8.jpg,Acabinetdraw8.jpg,RIGHT
300,lts4_0402I_01_01,299,0,0,1,614,Apercussion16.jpg,Apercussion16.jpg,RIGHT
301,lts4_0402I_01_01,300,0,0,1,476,26439297.thl.jpg,26439297.thl.jpg,RIGHT
302,lts4_0402I_01_01,301,0,0,1,581,2/26437028.thl.jpg,26437028.thl.jpg,RIGHT
303,lts4_0402I_01_01,302,0,0,1,472,ABRUSH19.jpg,ABRUSH19.jpg,RIGHT
304,lts4_0402I_01_01,303,2,1,1,907,2-11/26437028.thl.jpg,26437028.thl.jpg,LEFT
305,lts4_0402I_01_01,304,0,0,1,562,AJEEPBOA2.jpg,AJEEPBOA2.jpg,RIGHT
306,lts4_0402I_01_01,305,8,1,1,567,8-first/Apitchfork4.jpg,Apitchfork4.jpg,LEFT
307,lts4_0402I_01_01,306,0,0,1,485,APAPYRUS.jpg,APAPYRUS.jpg,RIGHT
308,lts4_0402I_01_01,307,0,0,1,575,APHARAOH.jpg,APHARAOH.jpg,RIGHT
309,lts4_0402I_01_01,308,0,0,1,492,26420830.thl.jpg,26420830.thl.jpg,RIGHT
310,lts4_0402I_01_01,309,0,0,1,665,APARKBENC.jpg,APARKBENC.jpg,RIGHT
311,lts4_0402I_01_01,310,0,0,1,536,26431205.thl.jpg,26431205.thl.jpg,RIGHT
312,lts4_0402I_01_01,311,0,0,1,521,32/AICESKAT8.jpg,AICESKAT8.jpg,RIGHT
313,lts4_0402I_01_01,312,0,0,1,427,64/Aclothespin2.jpg,Aclothespin2.jpg,RIGHT
314,lts4_0402I_01_01,313,0,0,1,465,Aacarthatsbe2.jpg,Aacarthatsbe2.jpg,RIGHT
315,lts4_0402I_01_01,314,0,0,1,465,Abandleaders2.jpg,Abandleaders2.jpg,RIGHT
316,lts4_0402I_01_01,315,64,1,1,712,64-first/Abowl74.jpg,Abowl74.jpg,LEFT
317,lts4_0402I_01_01,316,0,0,1,585,Aruler16.jpg,Aruler16.jpg,RIGHT
318,lts4_0402I_01_01,317,2,1,1,553,2-mul/Abowl74.jpg,Abowl74.jpg,LEFT
319,lts4_0402I_01_01,318,0,0,1,604,Abeesonahoney.jpg,Abeesonahoney.jpg,RIGHT
320,lts4_0402I_01_01,319,0,0,1,528,mascara.jpg,mascara.jpg,RIGHT
321,lts4_0402I_01_01,320,0,0,1,531,AANTICOT.jpg,AANTICOT.jpg,RIGHT
322,lts4_0402I_01_01,321,16,1,1,500,16-mul/Apitchfork4.jpg,Apitchfork4.jpg,LEFT
323,lts4_0402I_01_01,322,0,0,1,752,AWASHMAC5.jpg,AWASHMAC5.jpg,RIGHT
324,lts4_0402I_01_01,323,0,0,1,624,AFRUIT3.jpg,AFRUIT3.jpg,RIGHT
325,lts4_0402I_01_01,324,0,0,1,713,8/36407726.thl.jpg,36407726.thl.jpg,RIGHT
326,lts4_0402I_01_01,325,0,0,1,752,Achrisd25.jpg,Achrisd25.jpg,RIGHT
327,lts4_0402I_01_01,326,0,0,1,475,Acorn10.jpg,Acorn10.jpg,RIGHT
328,lts4_0402I_01_01,327,0,0,1,600,23024623.thl.jpg,23024623.thl.jpg,RIGHT
329,lts4_0402I_01_01,328,0,0,1,597,swingset.jpg,swingset.jpg,RIGHT
330,lts4_0402I_01_01,329,0,0,1,526,16/AOLDMILL2.jpg,AOLDMILL2.jpg,RIGHT
331,lts4_0402I_01_01,330,0,0,1,521,AHEADLIG9.jpg,AHEADLIG9.jpg,RIGHT
332,lts4_0402I_01_01,331,0,0,1,602,256/Asword138.jpg,Asword138.jpg,RIGHT
333,lts4_0402I_01_01,332,8,1,1,632,8-1/36407726.thl.jpg,36407726.thl.jpg,LEFT
334,lts4_0402I_01_01,333,0,0,1,607,Adice10.jpg,Adice10.jpg,RIGHT
335,lts4_0402I_01_01,334,0,0,1,549,4/Aspokesfaste2.jpg,Aspokesfaste2.jpg,RIGHT
336,lts4_0402I_01_01,335,0,0,1,691,26424784.thl.jpg,26424784.thl.jpg,RIGHT
337,lts4_0402I_01_01,336,0,0,1,698,ARETRACT2.jpg,ARETRACT2.jpg,RIGHT
338,lts4_0402I_01_01,337,0,0,1,670,AJUG3.jpg,AJUG3.jpg,RIGHT
339,lts4_0402I_01_01,338,4,1,1,519,4-11/Aspokesfaste2.jpg,Aspokesfaste2.jpg,LEFT
340,lts4_0402I_01_01,339,0,0,1,545,AMECHHAN3.jpg,AMECHHAN3.jpg,RIGHT
341,lts4_0402I_01_01,340,256,1,1,716,256-5/AAIRBLOW.jpg,AAIRBLOW.jpg,LEFT
342,lts4_0402I_01_01,341,0,0,1,758,Amatplate.jpg,Amatplate.jpg,RIGHT
343,lts4_0402I_01_01,342,0,0,1,629,32/ANUTS2.jpg,ANUTS2.jpg,RIGHT
344,lts4_0402I_01_01,343,32,1,1,730,32-4/AICESKAT8.jpg,AICESKAT8.jpg,LEFT
345,lts4_0402I_01_01,344,0,0,1,743,bagelslicer.jpg,bagelslicer.jpg,RIGHT
346,lts4_0402I_01_01,345,16,1,1,553,16-first/AOLDMILL2.jpg,AOLDMILL2.jpg,LEFT
347,lts4_0402I_01_01,346,0,0,1,701,workweightmach.jpg,workweightmach.jpg,RIGHT
348,lts4_0402I_01_01,347,0,0,1,1072,AWILDPIG.jpg,AWILDPIG.jpg,RIGHT
349,lts4_0402I_01_01,348,0,0,1,765,AARTIVE8.jpg,AARTIVE8.jpg,RIGHT
350,lts4_0402I_01_01,349,4,1,1,576,4-mul/AOLDMILL2.jpg,AOLDMILL2.jpg,LEFT
351,lts4_0402I_01_01,350,0,0,1,1110,E_statue.jpg,E_statue.jpg,RIGHT
352,lts4_0402I_01_01,351,0,0,1,625,ANWSPAPER.jpg,ANWSPAPER.jpg,RIGHT
353,lts4_0402I_01_01,352,0,0,1,621,8/Aflatwoodenba.jpg,Aflatwoodenba.jpg,RIGHT
354,lts4_0402I_01_01,353,64,1,1,627,64-first/Aseahorse4.jpg,Aseahorse4.jpg,LEFT
355,lts4_0402I_01_01,354,0,0,1,461,hurdle.jpg,hurdle.jpg,RIGHT
356,lts4_0402I_01_01,355,0,0,1,488,16/Afirstaidkit3.jpg,Afirstaidkit3.jpg,RIGHT
357,lts4_0402I_01_01,356,0,0,1,538,Apersonsfoot.jpg,Apersonsfoot.jpg,RIGHT
358,lts4_0402I_01_01,357,0,0,1,683,ABROWCONT.jpg,ABROWCONT.jpg,RIGHT
359,lts4_0402I_01_01,358,0,0,1,443,Asaturn.jpg,Asaturn.jpg,RIGHT
360,lts4_0402I_01_01,359,0,0,1,518,8/Acarjack2.jpg,Acarjack2.jpg,RIGHT
361,lts4_0402I_01_01,360,8,1,1,612,8-0/Aflatwoodenba.jpg,Aflatwoodenba.jpg,LEFT
362,lts4_0402I_01_01,361,0,0,1,458,ABACCAMEL.jpg,ABACCAMEL.jpg,RIGHT
363,lts4_0402I_01_01,362,128,1,1,575,128-6/ABUDDHA18.jpg,ABUDDHA18.jpg,LEFT
364,lts4_0402I_01_01,363,0,0,1,534,basketball.JPG,basketball.JPG,RIGHT
365,lts4_0402I_01_01,364,0,0,1,601,Aparrot80.jpg,Aparrot80.jpg,RIGHT
366,lts4_0402I_01_01,365,0,0,1,914,Aleaf74.jpg,Aleaf74.jpg,RIGHT
367,lts4_0402I_01_01,366,0,0,1,568,26466258.thl.jpg,26466258.thl.jpg,RIGHT
368,lts4_0402I_01_01,367,8,1,1,701,8-first/Acarjack2.jpg,Acarjack2.jpg,LEFT
369,lts4_0402I_01_01,368,0,0,1,561,ACHERRY.jpg,ACHERRY.jpg,RIGHT
370,lts4_0402I_01_01,369,16,1,1,550,16-mul/Aseahorse4.jpg,Aseahorse4.jpg,LEFT
371,lts4_0402I_01_01,370,0,0,1,553,26687176.thl.jpg,26687176.thl.jpg,RIGHT
372,lts4_0402I_01_01,371,16,1,1,876,16-first/Afirstaidkit3.jpg,Afirstaidkit3.jpg,LEFT
373,lts4_0402I_01_01,372,0,0,1,559,cd2-a.jpg,cd2-a.jpg,RIGHT
374,lts4_0402I_01_01,373,0,0,1,636,liquid-a.jpg,liquid-a.jpg,RIGHT
375,lts4_0402I_01_01,374,32,1,1,599,32-0/ANUTS2.jpg,ANUTS2.jpg,LEFT
376,lts4_0402I_01_01,375,0,0,1,652,23028486.thl.jpg,23028486.thl.jpg,RIGHT
377,lts4_0402I_01_01,376,64,1,1,650,64-first/Aclothespin2.jpg,Aclothespin2.jpg,LEFT
378,lts4_0402I_01_01,377,0,0,1,541,Apartyha3.jpg,Apartyha3.jpg,RIGHT
379,lts4_0402I_01_01,378,2,1,1,551,2-mul/Aclothespin2.jpg,Aclothespin2.jpg,LEFT
380,lts4_0402I_01_01,379,0,0,1,505,8022302.thl.jpg,8022302.thl.jpg,RIGHT
381,lts4_0402I_01_01,380,0,0,1,584,26437068.thl.jpg,26437068.thl.jpg,RIGHT
382,lts4_0402I_01_01,381,0,0,1,621,256/AHIBACHI.jpg,AHIBACHI.jpg,RIGHT
383,lts4_0402I_01_01,382,0,0,1,674,9816397.thl.jpg,9816397.thl.jpg,RIGHT
384,lts4_0402I_01_01,383,16,1,1,532,16-mul/Acarjack2.jpg,Acarjack2.jpg,LEFT
385,lts4_0402I_01_01,384,0,0,1,652,Aconferencer3.jpg,Aconferencer3.jpg,RIGHT
386,lts4_0402I_01_01,385,0,0,1,760,Acactusfruit.jpg,Acactusfruit.jpg,RIGHT
387,lts4_0402I_01_01,386,0,0,1,492,Aglassbottle6.jpg,Aglassbottle6.jpg,RIGHT
388,lts4_0402I_01_01,387,16,1,1,520,16-mul/Afirstaidkit3.jpg,Afirstaidkit3.jpg,LEFT
389,lts4_0402I_01_01,388,0,0,1,495,1/26772824.thl.jpg,26772824.thl.jpg,RIGHT
390,lts4_0402I_01_01,389,1,1,1,487,1-10/26772824.thl.jpg,26772824.thl.jpg,LEFT
391,lts4_0402I_01_01,390,0,0,1,519,Atrowel42.jpg,Atrowel42.jpg,RIGHT
392,lts4_0402I_01_01,391,0,0,1,497,8252065.thl.jpg,8252065.thl.jpg,RIGHT
393,lts4_0402I_01_01,392,256,1,1,561,256-2/AFIREPLAC.jpg,AFIREPLAC.jpg,LEFT
394,lts4_0402I_01_01,393,0,0,1,517,ASNBRD2.jpg,ASNBRD2.jpg,RIGHT
395,lts4_0402I_01_01,394,128,1,1,491,128-0/AMEAT2.jpg,AMEAT2.jpg,RIGHT
396,lts4_0402I_01_01,395,0,0,1,701,Aantiquewate3.jpg,Aantiquewate3.jpg,RIGHT
397,lts4_0402I_01_01,396,0,0,1,695,16/Aglass43.jpg,Aglass43.jpg,RIGHT
398,lts4_0402I_01_01,397,0,0,1,544,2/ALEMUR3.jpg,ALEMUR3.jpg,RIGHT
399,lts4_0402I_01_01,398,0,0,1,864,AANTMILK.jpg,AANTMILK.jpg,LEFT
400,lts4_0402I_01_01,399,2,1,1,609,2-0/ALEMUR3.jpg,ALEMUR3.jpg,LEFT
401,lts4_0402I_01_01,400,0,0,1,807,26376346.thl.jpg,26376346.thl.jpg,RIGHT
402,lts4_0402I_01_01,401,0,0,1,585,wok.jpg,wok.jpg,RIGHT
403,lts4_0402I_01_01,402,0,0,1,543,AARTIVE6.jpg,AARTIVE6.jpg,RIGHT
404,lts4_0402I_01_01,403,0,0,1,528,ACLOSET4.jpg,ACLOSET4.jpg,RIGHT
405,lts4_0402I_01_01,404,0,0,1,912,Atrap4.jpg,Atrap4.jpg,RIGHT
406,lts4_0402I_01_01,405,0,0,1,533,ABATHTAP.jpg,ABATHTAP.jpg,RIGHT
407,lts4_0402I_01_01,406,0,0,1,606,ACHILDISH.jpg,ACHILDISH.jpg,RIGHT
408,lts4_0402I_01_01,407,0,0,1,497,surfboard.JPG,surfboard.JPG,RIGHT
409,lts4_0402I_01_01,408,0,0,1,634,Acompactdisc2.jpg,Acompactdisc2.jpg,RIGHT
410,lts4_0402I_01_01,409,0,0,1,603,Acoatrack5.jpg,Acoatrack5.jpg,RIGHT
411,lts4_0402I_01_01,410,0,0,1,481,Aredandbluef2.jpg,Aredandbluef2.jpg,RIGHT
412,lts4_0402I_01_01,411,0,0,1,1056,fortune-cookie.jpg,fortune-cookie.jpg,RIGHT
413,lts4_0402I_01_01,412,16,1,1,622,16-first/Aglass43.jpg,Aglass43.jpg,LEFT
414,lts4_0402I_01_01,413,0,0,1,645,16/gun.jpg,gun.jpg,RIGHT
415,lts4_0402I_01_01,414,0,0,1,660,Abackpack11.jpg,Abackpack11.jpg,RIGHT
416,lts4_0402I_01_01,415,0,0,1,576,10049566.thl.jpg,10049566.thl.jpg,RIGHT
417,lts4_0402I_01_01,416,4,1,1,925,4-mul/Aglass43.jpg,Aglass43.jpg,LEFT
418,lts4_0402I_01_01,417,0,0,1,826,AMAGTABL3.jpg,AMAGTABL3.jpg,RIGHT
419,lts4_0402I_01_01,418,0,0,1,607,ACROWNPEN.jpg,ACROWNPEN.jpg,RIGHT
420,lts4_0402I_01_01,419,0,0,1,618,ACEMPOST.jpg,ACEMPOST.jpg,RIGHT
421,lts4_0402I_01_01,420,128,1,1,902,128-7/AANTRAD24.jpg,AANTRAD24.jpg,LEFT
422,lts4_0402I_01_01,421,0,0,1,643,1/gymbench.jpg,gymbench.jpg,RIGHT
423,lts4_0402I_01_01,422,1,1,1,565,1-13/gymbench.jpg,gymbench.jpg,LEFT
424,lts4_0402I_01_01,423,0,0,1,672,ABABYPIN2.jpg,ABABYPIN2.jpg,RIGHT
425,lts4_0402I_01_01,424,256,1,1,652,256-0/Aeggsandwich6.jpg,Aeggsandwich6.jpg,LEFT
426,lts4_0402I_01_01,425,0,0,1,863,APLAQUE.jpg,APLAQUE.jpg,RIGHT
427,lts4_0402I_01_01,426,0,0,1,789,Atoymerrygoro.jpg,Atoymerrygoro.jpg,RIGHT
428,lts4_0402I_01_01,427,0,0,1,587,8/26431753.thl.jpg,26431753.thl.jpg,RIGHT
429,lts4_0402I_01_01,428,0,0,1,497,carbattery.jpg,carbattery.jpg,RIGHT
430,lts4_0402I_01_01,429,16,1,1,511,16-first/gun.jpg,gun.jpg,LEFT
431,lts4_0402I_01_01,430,0,0,1,522,ACATCAGE.jpg,ACATCAGE.jpg,RIGHT
432,lts4_0402I_01_01,431,0,0,1,630,Atool198.jpg,Atool198.jpg,RIGHT
433,lts4_0402I_01_01,432,0,0,1,632,AGLASSTRO.jpg,AGLASSTRO.jpg,RIGHT
434,lts4_0402I_01_01,433,0,0,1,453,Abicyclebrak4.jpg,Abicyclebrak4.jpg,RIGHT
435,lts4_0402I_01_01,434,0,0,1,508,AELEAGEN3.jpg,AELEAGEN3.jpg,RIGHT
436,lts4_0402I_01_01,435,8,1,1,703,8-first/26431753.thl.jpg,26431753.thl.jpg,LEFT
437,lts4_0402I_01_01,436,0,0,1,641,1/Aplastichousi.jpg,Aplastichousi.jpg,RIGHT
438,lts4_0402I_01_01,437,1,1,1,528,1-14/Aplastichousi.jpg,Aplastichousi.jpg,LEFT
439,lts4_0402I_01_01,438,0,0,1,461,8020200.thl.jpg,8020200.thl.jpg,RIGHT
440,lts4_0402I_01_01,439,4,1,1,552,4-mul/26431753.thl.jpg,26431753.thl.jpg,LEFT
441,lts4_0402I_01_01,440,0,0,1,566,22925624.thl.jpg,22925624.thl.jpg,RIGHT
442,lts4_0402I_01_01,441,0,0,1,537,2/Atoyturtle.jpg,Atoyturtle.jpg,RIGHT
443,lts4_0402I_01_01,442,0,0,1,631,ATEETH7.jpg,ATEETH7.jpg,RIGHT
444,lts4_0402I_01_01,443,2,1,1,653,2-3/Atoyturtle.jpg,Atoyturtle.jpg,LEFT
445,lts4_0402I_01_01,444,0,0,1,537,ABATHSALT.jpg,ABATHSALT.jpg,RIGHT
446,lts4_0402I_01_01,445,16,1,1,544,16-mul/gun.jpg,gun.jpg,LEFT
447,lts4_0402I_01_01,446,0,0,1,525,Alintbrush2.jpg,Alintbrush2.jpg,RIGHT
448,lts4_0402I_01_01,447,0,0,1,533,AROUNDFR3.jpg,AROUNDFR3.jpg,RIGHT
449,lts4_0402I_01_01,448,0,0,1,446,AWATERCO4.jpg,AWATERCO4.jpg,RIGHT
450,lts4_0402I_01_01,449,0,0,1,467,AELECOMP2.jpg,AELECOMP2.jpg,RIGHT
451,lts4_0402I_01_01,450,0,0,1,607,ABAKBRUS2.jpg,ABAKBRUS2.jpg,RIGHT
452,lts4_0402I_01_01,451,0,0,1,505,ANAPKHOL7.jpg,ANAPKHOL7.jpg,RIGHT
453,lts4_0402I_01_01,452,0,0,1,521,Ahandheldmir3.jpg,Ahandheldmir3.jpg,RIGHT
454,lts4_0402I_01_01,453,0,0,1,519,ACOFFTA18.jpg,ACOFFTA18.jpg,RIGHT
455,lts4_0402I_01_01,454,0,0,1,580,4/ACONSTRU9.jpg,ACONSTRU9.jpg,RIGHT
456,lts4_0402I_01_01,455,0,0,1,494,16/Ajar33.jpg,Ajar33.jpg,RIGHT
457,lts4_0402I_01_01,456,0,0,1,502,AANTTRUCK.jpg,AANTTRUCK.jpg,RIGHT
458,lts4_0402I_01_01,457,0,0,1,455,8020414.thl.jpg,8020414.thl.jpg,RIGHT
459,lts4_0402I_01_01,458,4,1,1,662,4-8/ACONSTRU9.jpg,ACONSTRU9.jpg,LEFT
460,lts4_0402I_01_01,459,0,0,1,506,32/26386846.thl.jpg,26386846.thl.jpg,RIGHT
461,lts4_0402I_01_01,460,0,0,1,503,Atoyfurnitu14.jpg,Atoyfurnitu14.jpg,RIGHT
462,lts4_0402I_01_01,461,0,0,1,637,Apercussioni3.jpg,Apercussioni3.jpg,RIGHT
463,lts4_0402I_01_01,462,0,0,1,481,2/Apocketknifew.jpg,Apocketknifew.jpg,RIGHT
464,lts4_0402I_01_01,463,0,0,1,719,AWASHOPEN.jpg,AWASHOPEN.jpg,RIGHT
465,lts4_0402I_01_01,464,2,1,1,567,2-5/Apocketknifew.jpg,Apocketknifew.jpg,LEFT
466,lts4_0402I_01_01,465,0,0,1,507,1/broccoli.jpg,broccoli.jpg,RIGHT
467,lts4_0402I_01_01,466,1,1,1,512,1-5/broccoli.jpg,broccoli.jpg,LEFT
468,lts4_0402I_01_01,467,0,0,1,546,26425323.thl.jpg,26425323.thl.jpg,RIGHT
469,lts4_0402I_01_01,468,0,0,1,526,Heatpad.jpg,Heatpad.jpg,RIGHT
470,lts4_0402I_01_01,469,0,0,1,531,Acombination6.jpg,Acombination6.jpg,RIGHT
471,lts4_0402I_01_01,470,0,0,1,541,ABREASPU2.jpg,ABREASPU2.jpg,RIGHT
472,lts4_0402I_01_01,471,16,1,1,548,16-first/Ajar33.jpg,Ajar33.jpg,LEFT
473,lts4_0402I_01_01,472,0,0,1,483,Apig5.jpg,Apig5.jpg,RIGHT
474,lts4_0402I_01_01,473,0,0,1,670,Astamp23.jpg,Astamp23.jpg,RIGHT
475,lts4_0402I_01_01,474,0,0,1,495,Abowloffruit5.jpg,Abowloffruit5.jpg,RIGHT
476,lts4_0402I_01_01,475,4,1,1,534,4-mul/Ajar33.jpg,Ajar33.jpg,LEFT
477,lts4_0402I_01_01,476,0,0,1,626,Apencilsharp5.jpg,Apencilsharp5.jpg,RIGHT
478,lts4_0402I_01_01,477,0,0,1,498,Aservicedesk.jpg,Aservicedesk.jpg,RIGHT
479,lts4_0402I_01_01,478,0,0,1,564,8/Achowchowdog.jpg,Achowchowdog.jpg,RIGHT
480,lts4_0402I_01_01,479,0,0,1,451,Aantiquehat4.jpg,Aantiquehat4.jpg,RIGHT
481,lts4_0402I_01_01,480,0,0,1,931,Achildsplaype.jpg,Achildsplaype.jpg,LEFT
482,lts4_0402I_01_01,481,0,0,1,465,2/26433686.thl.jpg,26433686.thl.jpg,RIGHT
483,lts4_0402I_01_01,482,0,0,1,517,Awheelchair6.jpg,Awheelchair6.jpg,RIGHT
484,lts4_0402I_01_01,483,2,1,1,536,2-4/26433686.thl.jpg,26433686.thl.jpg,LEFT
485,lts4_0402I_01_01,484,0,0,1,592,AMILMARK2.jpg,AMILMARK2.jpg,RIGHT
486,lts4_0402I_01_01,485,0,0,1,641,128/AWHISBARR.jpg,AWHISBARR.jpg,RIGHT
487,lts4_0402I_01_01,486,8,1,1,647,8-2/Achowchowdog.jpg,Achowchowdog.jpg,LEFT
488,lts4_0402I_01_01,487,0,0,1,615,26421106.thl.jpg,26421106.thl.jpg,RIGHT
489,lts4_0402I_01_01,488,0,0,1,694,ASPACEHE5.jpg,ASPACEHE5.jpg,RIGHT
490,lts4_0402I_01_01,489,0,0,1,672,strawberrytart.jpg,strawberrytart.jpg,RIGHT
491,lts4_0402I_01_01,490,0,0,1,633,AGLASSFL4.jpg,AGLASSFL4.jpg,RIGHT
492,lts4_0402I_01_01,491,32,1,1,711,32-5/26386846.thl.jpg,26386846.thl.jpg,LEFT
493,lts4_0402I_01_01,492,0,0,1,638,headcomb1.jpg,headcomb1.jpg,RIGHT
494,lts4_0402I_01_01,493,0,0,1,953,AGLASSBO7.jpg,AGLASSBO7.jpg,RIGHT
495,lts4_0402I_01_01,494,0,0,1,603,26684634.thl.jpg,26684634.thl.jpg,RIGHT
496,lts4_0402I_01_01,495,0,0,1,605,26440073.thl.jpg,26440073.thl.jpg,RIGHT
497,lts4_0402I_01_01,496,0,0,1,717,32/26374135.thl.jpg,26374135.thl.jpg,RIGHT
498,lts4_0402I_01_01,497,0,0,1,693,silver-bowl-small.jpg,silver-bowl-small.jpg,RIGHT
499,lts4_0402I_01_01,498,0,0,1,514,Abib2.jpg,Abib2.jpg,RIGHT
500,lts4_0402I_01_01,499,0,0,1,657,AROBES4.jpg,AROBES4.jpg,RIGHT
501,lts4_0402I_01_01,500,0,0,1,517,Aacupuncture2.jpg,Aacupuncture2.jpg,RIGHT
502,lts4_0402I_01_01,501,0,0,1,563,4/ABEDROOM8.jpg,ABEDROOM8.jpg,RIGHT
503,lts4_0402I_01_01,502,0,0,1,611,Acentipede4.jpg,Acentipede4.jpg,RIGHT
504,lts4_0402I_01_01,503,0,0,1,590,APOTGOLD2.jpg,APOTGOLD2.jpg,RIGHT
505,lts4_0402I_01_01,504,0,0,1,601,Ahighlightin2.jpg,Ahighlightin2.jpg,RIGHT
506,lts4_0402I_01_01,505,4,1,1,576,4-4/ABEDROOM8.jpg,ABEDROOM8.jpg,LEFT
507,lts4_0402I_01_01,506,0,0,1,797,satellitedirecttc.jpg,satellitedirecttc.jpg,RIGHT
508,lts4_0402I_01_01,507,0,0,1,677,ATRACINGT.jpg,ATRACINGT.jpg,RIGHT
509,lts4_0402I_01_01,508,0,0,1,550,Atoyelephant.jpg,Atoyelephant.jpg,RIGHT
510,lts4_0402I_01_01,509,0,0,1,509,Acautionroads.jpg,Acautionroads.jpg,RIGHT
511,lts4_0402I_01_01,510,0,0,1,554,22919000.thl.jpg,22919000.thl.jpg,RIGHT
512,lts4_0402I_01_01,511,256,1,1,409,256-6/ARIBBON9.jpg,ARIBBON9.jpg,RIGHT
513,lts4_0402I_01_01,512,0,0,1,595,26379430.thl.jpg,26379430.thl.jpg,RIGHT
514,lts4_0402I_01_01,513,0,0,1,728,Ahappdec4.jpg,Ahappdec4.jpg,RIGHT
515,lts4_0402I_01_01,514,0,0,1,630,8/26428593.thl.jpg,26428593.thl.jpg,RIGHT
516,lts4_0402I_01_01,515,0,0,1,831,4/8245818.thl.jpg,8245818.thl.jpg,RIGHT
517,lts4_0402I_01_01,516,0,0,1,520,AMEDCONTA.jpg,AMEDCONTA.jpg,RIGHT
518,lts4_0402I_01_01,517,0,0,1,650,26466344.thl.jpg,26466344.thl.jpg,RIGHT
519,lts4_0402I_01_01,518,0,0,1,472,whiteboard.jpg,whiteboard.jpg,RIGHT
520,lts4_0402I_01_01,519,4,1,1,529,4-3/8245818.thl.jpg,8245818.thl.jpg,LEFT
521,lts4_0402I_01_01,520,0,0,1,527,26433387.thl.jpg,26433387.thl.jpg,RIGHT
522,lts4_0402I_01_01,521,0,0,1,695,9815629.thl.jpg,9815629.thl.jpg,RIGHT
523,lts4_0402I_01_01,522,8,1,1,595,8-first/26428593.thl.jpg,26428593.thl.jpg,LEFT
524,lts4_0402I_01_01,523,0,0,1,606,Asquid2.jpg,Asquid2.jpg,RIGHT
525,lts4_0402I_01_01,524,2,1,1,531,2-mul/26428593.thl.jpg,26428593.thl.jpg,LEFT
526,lts4_0402I_01_01,525,0,0,1,493,8020347.thl.jpg,8020347.thl.jpg,RIGHT
527,lts4_0402I_01_01,526,0,0,1,600,Ataco.jpg,Ataco.jpg,RIGHT
528,lts4_0402I_01_01,527,0,0,1,534,128/Abedspringsam.jpg,Abedspringsam.jpg,RIGHT
529,lts4_0402I_01_01,528,32,1,1,578,32-1/26374135.thl.jpg,26374135.thl.jpg,LEFT
530,lts4_0402I_01_01,529,0,0,1,629,ASWITCH6.jpg,ASWITCH6.jpg,RIGHT
531,lts4_0402I_01_01,530,0,0,1,654,AFRYPAN7.jpg,AFRYPAN7.jpg,RIGHT
532,lts4_0402I_01_01,531,0,0,1,654,Ablanket2.jpg,Ablanket2.jpg,RIGHT
533,lts4_0402I_01_01,532,0,0,1,729,8055554.thl.jpg,8055554.thl.jpg,RIGHT
534,lts4_0402I_01_01,533,0,0,1,523,carseat.jpg,carseat.jpg,RIGHT
535,lts4_0402I_01_01,534,512,1,1,734,512-4/Awindmill4.jpg,Awindmill4.jpg,LEFT
536,lts4_0402I_01_01,535,0,0,1,965,ACHEEGRA3.jpg,ACHEEGRA3.jpg,RIGHT
537,lts4_0402I_01_01,536,0,0,1,629,wetsuit1.jpg,wetsuit1.jpg,RIGHT
538,lts4_0402I_01_01,537,0,0,1,481,ACARMON.jpg,ACARMON.jpg,RIGHT
539,lts4_0402I_01_01,538,0,0,1,717,Ascientificm2.jpg,Ascientificm2.jpg,RIGHT
540,lts4_0402I_01_01,539,0,0,1,674,1/Areceiptmach2.jpg,Areceiptmach2.jpg,RIGHT
541,lts4_0402I_01_01,540,1,1,1,566,1-1/Areceiptmach2.jpg,Areceiptmach2.jpg,LEFT
542,lts4_0402I_01_01,541,0,0,1,510,Abuilding116.jpg,Abuilding116.jpg,RIGHT
543,lts4_0402I_01_01,542,0,0,1,678,8/ABAROMET2.jpg,ABAROMET2.jpg,RIGHT
544,lts4_0402I_01_01,543,0,0,1,504,APETROL2.jpg,APETROL2.jpg,RIGHT
545,lts4_0402I_01_01,544,0,0,1,585,16/Acableandacce.jpg,Acableandacce.jpg,RIGHT
546,lts4_0402I_01_01,545,0,0,1,552,26424440.thl.jpg,26424440.thl.jpg,RIGHT
547,lts4_0402I_01_01,546,0,0,1,533,AMANGO.jpg,AMANGO.jpg,RIGHT
548,lts4_0402I_01_01,547,0,0,1,604,Atelescope2.jpg,Atelescope2.jpg,RIGHT
549,lts4_0402I_01_01,548,0,0,1,602,128/ALIGHTHO5.jpg,ALIGHTHO5.jpg,RIGHT
550,lts4_0402I_01_01,549,0,0,1,771,AROCKET11.jpg,AROCKET11.jpg,RIGHT
551,lts4_0402I_01_01,550,8,1,1,619,8-first/ABAROMET2.jpg,ABAROMET2.jpg,RIGHT
552,lts4_0402I_01_01,551,0,0,1,684,Aclamp55.jpg,Aclamp55.jpg,RIGHT
553,lts4_0402I_01_01,552,2,1,1,562,2-mul/ABAROMET2.jpg,ABAROMET2.jpg,LEFT
554,lts4_0402I_01_01,553,0,0,1,749,1/Awhistl15.jpg,Awhistl15.jpg,RIGHT
555,lts4_0402I_01_01,554,1,1,1,728,1-2/Awhistl15.jpg,Awhistl15.jpg,LEFT
556,lts4_0402I_01_01,555,0,0,1,768,26433849.thl.jpg,26433849.thl.jpg,RIGHT
557,lts4_0402I_01_01,556,0,0,1,608,AVACUUM4.jpg,AVACUUM4.jpg,RIGHT
558,lts4_0402I_01_01,557,0,0,1,606,Aboardgame2.jpg,Aboardgame2.jpg,RIGHT
559,lts4_0402I_01_01,558,0,0,1,746,pretzelsticks.jpg,pretzelsticks.jpg,RIGHT
560,lts4_0402I_01_01,559,0,0,1,743,Aflamingo4.jpg,Aflamingo4.jpg,RIGHT
561,lts4_0402I_01_01,560,16,1,1,694,16-first/Acableandacce.jpg,Acableandacce.jpg,RIGHT
562,lts4_0402I_01_01,561,0,0,1,581,22887480.thl.jpg,22887480.thl.jpg,RIGHT
563,lts4_0402I_01_01,562,2,1,1,531,2-mul/Acableandacce.jpg,Acableandacce.jpg,LEFT
564,lts4_0402I_01_01,563,0,0,1,879,ALEGCAST3.jpg,ALEGCAST3.jpg,RIGHT
565,lts4_0402I_01_01,564,0,0,1,708,ASTONEOWL.jpg,ASTONEOWL.jpg,RIGHT
566,lts4_0402I_01_01,565,0,0,1,790,Adicecupandb5.jpg,Adicecupandb5.jpg,RIGHT
567,lts4_0402I_01_01,566,0,0,1,651,Ahumansku101.jpg,Ahumansku101.jpg,RIGHT
568,lts4_0402I_01_01,567,0,0,1,539,ABULLMASK.jpg,ABULLMASK.jpg,RIGHT
569,lts4_0402I_01_01,568,0,0,1,921,Avicegriptool.jpg,Avicegriptool.jpg,RIGHT
570,lts4_0402I_01_01,569,0,0,1,856,ADIAMCRYS.jpg,ADIAMCRYS.jpg,RIGHT
571,lts4_0402I_01_01,570,0,0,1,559,canopy.jpg,canopy.jpg,RIGHT
572,lts4_0402I_01_01,571,0,0,1,598,D_dumpster.jpg,D_dumpster.jpg,RIGHT
573,lts4_0402I_01_01,572,0,0,1,588,AFLAMMABL.jpg,AFLAMMABL.jpg,RIGHT
574,lts4_0402I_01_01,573,0,0,1,630,ALOVSEA10.jpg,ALOVSEA10.jpg,RIGHT
575,lts4_0402I_01_01,574,0,0,1,867,8024092.thl.jpg,8024092.thl.jpg,RIGHT
576,lts4_0402I_01_01,575,0,0,1,483,paintbrush03.jpg,paintbrush03.jpg,RIGHT
577,lts4_0402I_01_01,576,0,0,1,629,ASCREEN3.jpg,ASCREEN3.jpg,RIGHT
578,lts4_0402I_01_01,577,0,0,1,521,ABUILDI12.jpg,ABUILDI12.jpg,RIGHT
579,lts4_0402I_01_01,578,0,0,1,607,Acomputer9.jpg,Acomputer9.jpg,RIGHT
580,lts4_0402I_01_01,579,0,0,1,483,26373735.thl.jpg,26373735.thl.jpg,RIGHT
581,lts4_0402I_01_01,580,0,0,1,508,batteries-a.jpg,batteries-a.jpg,RIGHT
582,lts4_0402I_01_01,581,0,0,1,603,ATAPEDIS7.jpg,ATAPEDIS7.jpg,RIGHT
583,lts4_0402I_01_01,582,0,0,1,517,AJEWISHTA.jpg,AJEWISHTA.jpg,RIGHT
584,lts4_0402I_01_01,583,0,0,1,1135,Acomputerbag.jpg,Acomputerbag.jpg,LEFT
585,lts4_0402I_01_01,584,0,0,1,530,ACHEESEB3.jpg,ACHEESEB3.jpg,RIGHT
586,lts4_0402I_01_01,585,0,0,1,489,Achair608.jpg,Achair608.jpg,RIGHT
587,lts4_0402I_01_01,586,0,0,1,430,Acrayonsinabo.jpg,Acrayonsinabo.jpg,RIGHT
588,lts4_0402I_01_01,587,256,1,1,466,256-1/Asword138.jpg,Asword138.jpg,RIGHT
589,lts4_0402I_01_01,588,0,0,1,579,Abicyclehand5.jpg,Abicyclehand5.jpg,RIGHT
590,lts4_0402I_01_01,589,0,0,1,633,Acampingtoolk.jpg,Acampingtoolk.jpg,RIGHT
591,lts4_0402I_01_01,590,0,0,1,521,drumsticks01.jpg,drumsticks01.jpg,RIGHT
592,lts4_0402I_01_01,591,0,0,1,912,launmower.jpg,launmower.jpg,LEFT
593,lts4_0402I_01_01,592,0,0,1,786,ABULLDOG5.jpg,ABULLDOG5.jpg,RIGHT
594,lts4_0402I_01_01,593,0,0,1,503,ABAT.jpg,ABAT.jpg,RIGHT
595,lts4_0402I_01_01,594,0,0,1,513,26434297.thl.jpg,26434297.thl.jpg,RIGHT
596,lts4_0402I_01_01,595,0,0,1,834,ABABYDOLL.jpg,ABABYDOLL.jpg,RIGHT
597,lts4_0402I_01_01,596,0,0,1,719,shavingcream01.jpg,shavingcream01.jpg,RIGHT
598,lts4_0402I_01_01,597,0,0,1,692,TTtvehiclesCyborg.jpg,TTtvehiclesCyborg.jpg,RIGHT
599,lts4_0402I_01_01,598,0,0,1,700,ASTRAINE8.jpg,ASTRAINE8.jpg,LEFT
600,lts4_0402I_01_01,599,512,1,1,831,512-0/Aantiquesofa4.jpg,Aantiquesofa4.jpg,LEFT
601,lts4_0402I_01_01,600,0,0,1,576,trapezebars.jpg,trapezebars.jpg,RIGHT
602,lts4_0402I_01_01,601,0,0,1,495,26373407.thl.jpg,26373407.thl.jpg,RIGHT
603,lts4_0402I_01_01,602,0,0,1,544,Asantaclaus2.jpg,Asantaclaus2.jpg,RIGHT
604,lts4_0402I_01_01,603,0,0,1,700,Apaperclip6.jpg,Apaperclip6.jpg,RIGHT
605,lts4_0402I_01_01,604,0,0,1,668,10053712.thm.jpg,10053712.thm.jpg,RIGHT
606,lts4_0402I_01_01,605,0,0,1,591,Akitchenisla4.jpg,Akitchenisla4.jpg,RIGHT
607,lts4_0402I_01_01,606,0,0,1,638,1/22896812.thl.jpg,22896812.thl.jpg,RIGHT
608,lts4_0402I_01_01,607,1,1,1,461,1-6/22896812.thl.jpg,22896812.thl.jpg,LEFT
609,lts4_0402I_01_01,608,0,0,1,469,1/AFILM.jpg,AFILM.jpg,RIGHT
610,lts4_0402I_01_01,609,1,1,1,580,1-11/AFILM.jpg,AFILM.jpg,LEFT
611,lts4_0402I_01_01,610,0,0,1,689,8/Ashelf27.jpg,Ashelf27.jpg,RIGHT
612,lts4_0402I_01_01,611,0,0,1,426,ASCREW7.jpg,ASCREW7.jpg,RIGHT
613,lts4_0402I_01_01,612,0,0,1,1008,26390325.thl.jpg,26390325.thl.jpg,RIGHT
614,lts4_0402I_01_01,613,128,1,1,458,128-2/AWHISBARR.jpg,AWHISBARR.jpg,RIGHT
615,lts4_0402I_01_01,614,0,0,1,541,Acreamer35.jpg,Acreamer35.jpg,RIGHT
616,lts4_0402I_01_01,615,512,1,1,626,512-1/Acucumber2.jpg,Acucumber2.jpg,LEFT
617,lts4_0402I_01_01,616,0,0,1,633,AFLUTE6.jpg,AFLUTE6.jpg,RIGHT
618,lts4_0402I_01_01,617,0,0,1,820,Abucket51.jpg,Abucket51.jpg,RIGHT
619,lts4_0402I_01_01,618,8,1,1,700,8-first/Ashelf27.jpg,Ashelf27.jpg,RIGHT
620,lts4_0402I_01_01,619,0,0,1,445,ASCALE30.jpg,ASCALE30.jpg,RIGHT
621,lts4_0402I_01_01,620,0,0,1,622,4/ASCYTHE7.jpg,ASCYTHE7.jpg,RIGHT
622,lts4_0402I_01_01,621,0,0,1,1269,AINCENSE4.jpg,AINCENSE4.jpg,RIGHT
623,lts4_0402I_01_01,622,4,1,1,838,4-mul/Ashelf27.jpg,Ashelf27.jpg,LEFT
624,lts4_0402I_01_01,623,0,0,1,442,dragon.jpg,dragon.jpg,RIGHT
625,lts4_0402I_01_01,624,4,1,1,752,4-2/ASCYTHE7.jpg,ASCYTHE7.jpg,LEFT
626,lts4_0402I_01_01,625,0,0,1,459,retainertheeth.jpg,retainertheeth.jpg,RIGHT
627,lts4_0402I_01_01,626,0,0,1,659,22859796.thl.jpg,22859796.thl.jpg,RIGHT
628,lts4_0402I_01_01,627,0,0,1,609,8080484.thl.jpg,8080484.thl.jpg,RIGHT
629,lts4_0402I_01_01,628,0,0,1,942,4/26424087.thl.jpg,26424087.thl.jpg,RIGHT
630,lts4_0402I_01_01,629,0,0,1,955,AMILPHONE.jpg,AMILPHONE.jpg,RIGHT
631,lts4_0402I_01_01,630,0,0,1,731,Atoyparrot2.jpg,Atoyparrot2.jpg,RIGHT
632,lts4_0402I_01_01,631,0,0,1,570,16/Atoyhomeoffi4.jpg,Atoyhomeoffi4.jpg,RIGHT
633,lts4_0402I_01_01,632,4,1,1,536,4-1/26424087.thl.jpg,26424087.thl.jpg,LEFT
634,lts4_0402I_01_01,633,0,0,1,693,22857516.thl.jpg,22857516.thl.jpg,RIGHT
635,lts4_0402I_01_01,634,0,0,1,822,1/Atelephoneja2.jpg,Atelephoneja2.jpg,RIGHT
636,lts4_0402I_01_01,635,1,1,0,NA,1-3/Atelephoneja2.jpg,Atelephoneja2.jpg,NOKEY
637,lts4_0402I_01_01,636,0,0,1,859,ALAB36.jpg,ALAB36.jpg,RIGHT
638,lts4_0402I_01_01,637,256,1,1,601,256-3/AHIBACHI.jpg,AHIBACHI.jpg,RIGHT
639,lts4_0402I_01_01,638,0,0,1,626,26455183.thl.jpg,26455183.thl.jpg,RIGHT
640,lts4_0402I_01_01,639,0,0,1,597,26443034.thl.jpg,26443034.thl.jpg,RIGHT
641,lts4_0402I_01_01,640,512,1,1,492,512-2/ABOXVIALS.jpg,ABOXVIALS.jpg,RIGHT
642,lts4_0402I_01_01,641,0,0,1,622,Aclowguit.jpg,Aclowguit.jpg,RIGHT
643,lts4_0402I_01_01,642,0,0,1,568,1/26461587.thl.jpg,26461587.thl.jpg,RIGHT
644,lts4_0402I_01_01,643,1,1,1,539,1-12/26461587.thl.jpg,26461587.thl.jpg,LEFT
645,lts4_0402I_01_01,644,0,0,1,819,Apowerbar7.jpg,Apowerbar7.jpg,RIGHT
646,lts4_0402I_01_01,645,0,0,1,637,Atoy63.jpg,Atoy63.jpg,RIGHT
647,lts4_0402I_01_01,646,0,0,1,628,ATOOHOLDE.jpg,ATOOHOLDE.jpg,RIGHT
648,lts4_0402I_01_01,647,16,1,1,689,16-0/Atoyhomeoffi4.jpg,Atoyhomeoffi4.jpg,LEFT
649,lts4_0402I_01_01,648,0,0,1,626,2/Aknife76.jpg,Aknife76.jpg,RIGHT
650,lts4_0402I_01_01,649,0,0,1,674,26426575.thl.jpg,26426575.thl.jpg,RIGHT
651,lts4_0402I_01_01,650,2,1,1,633,2-13/Aknife76.jpg,Aknife76.jpg,LEFT
652,lts4_0402I_01_01,651,0,0,1,565,26373068.thl.jpg,26373068.thl.jpg,RIGHT
653,lts4_0402I_01_01,652,0,0,1,572,Ainflatable10.jpg,Ainflatable10.jpg,RIGHT
654,lts4_0402I_01_01,653,0,0,1,515,8245563.thl.jpg,8245563.thl.jpg,RIGHT
655,lts4_0402I_01_01,654,0,0,1,511,Akiwifruit6.jpg,Akiwifruit6.jpg,RIGHT
656,lts4_0402I_01_01,655,128,1,1,524,128-1/Abedspringsam.jpg,Abedspringsam.jpg,RIGHT
657,lts4_0402I_01_01,656,0,0,1,812,Agrilledmeata.jpg,Agrilledmeata.jpg,RIGHT
658,lts4_0402I_01_01,657,0,0,1,687,ACOWBOYH3.jpg,ACOWBOYH3.jpg,RIGHT
659,lts4_0402I_01_01,658,0,0,1,685,ASLED7.jpg,ASLED7.jpg,RIGHT
660,lts4_0402I_01_01,659,0,0,1,886,Acookiecutte3.jpg,Acookiecutte3.jpg,RIGHT
661,lts4_0402I_01_01,660,0,0,1,732,26392651.thl.jpg,26392651.thl.jpg,RIGHT
662,lts4_0402I_01_01,661,512,1,1,659,512-3/Awaxlips.jpg,Awaxlips.jpg,LEFT
663,lts4_0402I_01_01,662,0,0,1,674,blackjackcasinotable.jpg,blackjackcasinotable.jpg,RIGHT
664,lts4_0402I_01_01,663,0,0,1,686,4/Ateacherscert.jpg,Ateacherscert.jpg,RIGHT
665,lts4_0402I_01_01,664,512,1,1,853,512-5/AFETTUCI2.jpg,AFETTUCI2.jpg,LEFT
666,lts4_0402I_01_01,665,0,0,1,850,Agreencup2.jpg,Agreencup2.jpg,RIGHT
667,lts4_0402I_01_01,666,0,0,1,611,AARTDUCK3.jpg,AARTDUCK3.jpg,RIGHT
668,lts4_0402I_01_01,667,4,1,1,533,4-7/Ateacherscert.jpg,Ateacherscert.jpg,LEFT
669,lts4_0402I_01_01,668,0,0,1,591,4/26384554.thl.jpg,26384554.thl.jpg,RIGHT
670,lts4_0402I_01_01,669,0,0,1,591,ABABYSPOO.jpg,ABABYSPOO.jpg,RIGHT
671,lts4_0402I_01_01,670,0,0,1,621,22853544.thl.jpg,22853544.thl.jpg,RIGHT
672,lts4_0402I_01_01,671,0,0,1,481,Aadjustablec2.jpg,Aadjustablec2.jpg,RIGHT
673,lts4_0402I_01_01,672,4,1,1,579,4-10/26384554.thl.jpg,26384554.thl.jpg,LEFT
674,lts4_0402I_01_01,673,0,0,1,735,1/Atoy57.jpg,Atoy57.jpg,RIGHT
675,lts4_0402I_01_01,674,1,1,1,550,1-8/Atoy57.jpg,Atoy57.jpg,LEFT
676,lts4_0402I_01_01,675,0,0,1,659,Acomputerkey2.jpg,Acomputerkey2.jpg,RIGHT
677,lts4_0402I_01_01,676,128,1,1,840,128-3/ALIGHTHO5.jpg,ALIGHTHO5.jpg,LEFT
678,lts4_0402I_01_01,677,0,0,1,918,hockeypuck.jpg,hockeypuck.jpg,RIGHT
679,lts4_0402I_01_01,678,0,0,1,630,26428576.thl.jpg,26428576.thl.jpg,RIGHT
680,lts4_0402I_01_01,679,0,0,1,681,pinballmachine.jpg,pinballmachine.jpg,RIGHT
681,lts4_0402I_01_01,0,0,0,1,997,22825932.thl.jpg,22825932.thl.jpg,RIGHT
682,lts4_0402I_01_01,1,0,0,1,604,256/Arockingchai5.jpg,Arockingchai5.jpg,RIGHT
683,lts4_0402I_01_01,2,0,0,1,456,26282515.thl.jpg,26282515.thl.jpg,RIGHT
684,lts4_0402I_01_01,3,0,0,1,591,Ajuicer27.jpg,Ajuicer27.jpg,RIGHT
685,lts4_0402I_01_01,4,0,0,1,474,ATUNFORK2.jpg,ATUNFORK2.jpg,RIGHT
686,lts4_0402I_01_01,5,0,0,1,947,4/barssport.jpg,barssport.jpg,RIGHT
687,lts4_0402I_01_01,6,0,0,1,462,8019781.thl.jpg,8019781.thl.jpg,RIGHT
688,lts4_0402I_01_01,7,0,0,1,495,AMAILBOX9.jpg,AMAILBOX9.jpg,RIGHT
689,lts4_0402I_01_01,8,0,0,1,435,Aflower102.jpg,Aflower102.jpg,RIGHT
690,lts4_0402I_01_01,9,4,1,1,560,4-11/barssport.jpg,barssport.jpg,LEFT
691,lts4_0402I_01_01,10,0,0,1,1994,8252024.thl.jpg,8252024.thl.jpg,RIGHT
692,lts4_0402I_01_01,11,0,0,1,392,Aowl8.jpg,Aowl8.jpg,RIGHT
693,lts4_0402I_01_01,12,0,0,1,399,Aelephant9.jpg,Aelephant9.jpg,RIGHT
694,lts4_0402I_01_01,13,0,0,1,483,AOVEN.jpg,AOVEN.jpg,RIGHT
695,lts4_0402I_01_01,14,0,0,1,419,AWOODSPO3.jpg,AWOODSPO3.jpg,RIGHT
696,lts4_0402I_01_01,15,0,0,1,569,64/ringbox03.jpg,ringbox03.jpg,RIGHT
697,lts4_0402I_01_01,16,0,0,1,939,03015528000.jpg,03015528000.jpg,RIGHT
698,lts4_0402I_01_01,17,0,0,1,1097,Abrasscr2.jpg,Abrasscr2.jpg,RIGHT
699,lts4_0402I_01_01,18,0,0,1,1298,ASKIPROP2.jpg,ASKIPROP2.jpg,RIGHT
700,lts4_0402I_01_01,19,0,0,1,472,ASHEEP4.jpg,ASHEEP4.jpg,RIGHT
701,lts4_0402I_01_01,20,0,0,1,641,4/Aflowerwreat2.jpg,Aflowerwreat2.jpg,RIGHT
702,lts4_0402I_01_01,21,0,0,1,473,AFOOTST11.jpg,AFOOTST11.jpg,RIGHT
703,lts4_0402I_01_01,22,0,0,1,508,Aglassbottl56.jpg,Aglassbottl56.jpg,RIGHT
704,lts4_0402I_01_01,23,0,0,1,521,8081398.thl.jpg,8081398.thl.jpg,RIGHT
705,lts4_0402I_01_01,24,4,1,1,617,4-7/Aflowerwreat2.jpg,Aflowerwreat2.jpg,LEFT
706,lts4_0402I_01_01,25,0,0,1,536,AMILPANS2.jpg,AMILPANS2.jpg,RIGHT
707,lts4_0402I_01_01,26,0,0,1,526,8/ABISHOP2.jpg,ABISHOP2.jpg,RIGHT
708,lts4_0402I_01_01,27,0,0,1,491,Adecorativem2.jpg,Adecorativem2.jpg,RIGHT
709,lts4_0402I_01_01,28,0,0,1,426,8/26429130.thl.jpg,26429130.thl.jpg,RIGHT
710,lts4_0402I_01_01,29,0,0,1,464,railroadblock.jpg,railroadblock.jpg,RIGHT
711,lts4_0402I_01_01,30,0,0,1,534,AHAZELNU3.jpg,AHAZELNU3.jpg,RIGHT
712,lts4_0402I_01_01,31,0,0,1,436,Aspecimenbot5.jpg,Aspecimenbot5.jpg,RIGHT
713,lts4_0402I_01_01,32,0,0,1,476,AAIRGRIN2.jpg,AAIRGRIN2.jpg,RIGHT
714,lts4_0402I_01_01,33,0,0,1,460,64/ABALLYAR4.jpg,ABALLYAR4.jpg,RIGHT
715,lts4_0402I_01_01,34,8,1,1,548,8-0/ABISHOP2.jpg,ABISHOP2.jpg,LEFT
716,lts4_0402I_01_01,35,0,0,1,590,AANTSTOV6.jpg,AANTSTOV6.jpg,RIGHT
717,lts4_0402I_01_01,36,8,1,1,574,8-first/26429130.thl.jpg,26429130.thl.jpg,LEFT
718,lts4_0402I_01_01,37,0,0,1,490,ABROOM11.jpg,ABROOM11.jpg,RIGHT
719,lts4_0402I_01_01,38,0,0,1,681,2/Ajesusstatue2.jpg,Ajesusstatue2.jpg,RIGHT
720,lts4_0402I_01_01,39,0,0,1,559,Aflashlight3.jpg,Aflashlight3.jpg,RIGHT
721,lts4_0402I_01_01,40,2,1,1,540,2-4/Ajesusstatue2.jpg,Ajesusstatue2.jpg,LEFT
722,lts4_0402I_01_01,41,0,0,1,471,Atoypersonwi2.jpg,Atoypersonwi2.jpg,RIGHT
723,lts4_0402I_01_01,42,0,1,1,551,00-across/AANTRAD24.jpg,AANTRAD24.jpg,LEFT
724,lts4_0402I_01_01,43,0,0,1,693,ALUNCHBO3.jpg,ALUNCHBO3.jpg,RIGHT
725,lts4_0402I_01_01,44,0,0,1,633,Acomputerdes8.jpg,Acomputerdes8.jpg,RIGHT
726,lts4_0402I_01_01,45,0,0,1,471,ACANOL.jpg,ACANOL.jpg,RIGHT
727,lts4_0402I_01_01,46,0,0,1,476,256/Ashark7.jpg,Ashark7.jpg,RIGHT
728,lts4_0402I_01_01,47,0,0,1,555,Ajoystick10.jpg,Ajoystick10.jpg,RIGHT
729,lts4_0402I_01_01,48,0,0,1,600,AKNEEBRA2.jpg,AKNEEBRA2.jpg,RIGHT
730,lts4_0402I_01_01,49,0,0,1,471,512/Aearth3.jpg,Aearth3.jpg,RIGHT
731,lts4_0402I_01_01,50,0,0,1,452,10050937.thl.jpg,10050937.thl.jpg,RIGHT
732,lts4_0402I_01_01,51,0,0,1,469,Aflyingeagle9.jpg,Aflyingeagle9.jpg,RIGHT
733,lts4_0402I_01_01,52,16,1,1,578,16-mul/26429130.thl.jpg,26429130.thl.jpg,LEFT
734,lts4_0402I_01_01,53,0,0,1,651,26431471.thl.jpg,26431471.thl.jpg,RIGHT
735,lts4_0402I_01_01,54,0,0,1,555,imate.jpg,imate.jpg,RIGHT
736,lts4_0402I_01_01,55,0,0,1,507,Awaffle3.jpg,Awaffle3.jpg,RIGHT
737,lts4_0402I_01_01,56,0,0,1,561,23071000.thl.jpg,23071000.thl.jpg,RIGHT
738,lts4_0402I_01_01,57,0,0,1,551,AOPGLASS.jpg,AOPGLASS.jpg,RIGHT
739,lts4_0402I_01_01,58,0,0,1,557,Anotepad9.jpg,Anotepad9.jpg,RIGHT
740,lts4_0402I_01_01,59,0,0,1,575,AWOODPIN.jpg,AWOODPIN.jpg,RIGHT
741,lts4_0402I_01_01,60,0,1,1,505,00-across/ABEDROOM8.jpg,ABEDROOM8.jpg,RIGHT
742,lts4_0402I_01_01,61,0,0,1,554,Atoyboat10.jpg,Atoyboat10.jpg,RIGHT
743,lts4_0402I_01_01,62,0,0,1,691,26419324.thl.jpg,26419324.thl.jpg,RIGHT
744,lts4_0402I_01_01,63,0,0,1,779,512/AEIFFELTO.jpg,AEIFFELTO.jpg,RIGHT
745,lts4_0402I_01_01,64,0,0,1,603,Ainflatablem6.jpg,Ainflatablem6.jpg,RIGHT
746,lts4_0402I_01_01,65,0,0,1,508,Atoy12.jpg,Atoy12.jpg,RIGHT
747,lts4_0402I_01_01,66,0,0,1,561,2/AAPPCOVE2.jpg,AAPPCOVE2.jpg,RIGHT
748,lts4_0402I_01_01,67,0,0,1,692,AEXIT7.jpg,AEXIT7.jpg,RIGHT
749,lts4_0402I_01_01,68,2,1,1,598,2-5/AAPPCOVE2.jpg,AAPPCOVE2.jpg,LEFT
750,lts4_0402I_01_01,69,0,0,1,553,batslct.jpg,batslct.jpg,RIGHT
751,lts4_0402I_01_01,70,0,0,1,515,26457349.thl.jpg,26457349.thl.jpg,RIGHT
752,lts4_0402I_01_01,71,0,0,1,493,vendingmachine.jpg,vendingmachine.jpg,RIGHT
753,lts4_0402I_01_01,72,0,0,1,568,Acardinal2.jpg,Acardinal2.jpg,RIGHT
754,lts4_0402I_01_01,73,0,0,1,557,2/ABRIDGE3.jpg,ABRIDGE3.jpg,RIGHT
755,lts4_0402I_01_01,74,0,0,1,503,Amistingwate3.jpg,Amistingwate3.jpg,RIGHT
756,lts4_0402I_01_01,75,2,1,1,590,2-1/ABRIDGE3.jpg,ABRIDGE3.jpg,LEFT
757,lts4_0402I_01_01,76,0,0,1,514,Abluebabybug4.jpg,Abluebabybug4.jpg,RIGHT
758,lts4_0402I_01_01,77,0,0,1,670,Aleopard19.jpg,Aleopard19.jpg,RIGHT
759,lts4_0402I_01_01,78,0,0,1,663,Aboxofnotepa4.jpg,Aboxofnotepa4.jpg,RIGHT
760,lts4_0402I_01_01,79,64,1,1,703,64-first/ringbox03.jpg,ringbox03.jpg,LEFT
761,lts4_0402I_01_01,80,0,0,1,821,AHYDRANTF.jpg,AHYDRANTF.jpg,RIGHT
762,lts4_0402I_01_01,81,2,1,1,627,2-mul/ringbox03.jpg,ringbox03.jpg,LEFT
763,lts4_0402I_01_01,82,0,0,1,712,ACOOKCUTT.jpg,ACOOKCUTT.jpg,RIGHT
764,lts4_0402I_01_01,83,0,0,1,599,ACHANGDIS.jpg,ACHANGDIS.jpg,RIGHT
765,lts4_0402I_01_01,84,0,0,1,605,Aroadsignind3.jpg,Aroadsignind3.jpg,RIGHT
766,lts4_0402I_01_01,85,0,0,1,636,Agluegun.jpg,Agluegun.jpg,RIGHT
767,lts4_0402I_01_01,86,0,0,1,575,4/ACOMB5.jpg,ACOMB5.jpg,RIGHT
768,lts4_0402I_01_01,87,0,0,1,668,512/snail.jpg,snail.jpg,RIGHT
769,lts4_0402I_01_01,88,0,0,1,610,32/ASKYDIVE.jpg,ASKYDIVE.jpg,RIGHT
770,lts4_0402I_01_01,89,0,0,1,549,ABROOCH53.jpg,ABROOCH53.jpg,RIGHT
771,lts4_0402I_01_01,90,4,1,1,644,4-12/ACOMB5.jpg,ACOMB5.jpg,LEFT
772,lts4_0402I_01_01,91,0,0,1,648,Asandwichiro2.jpg,Asandwichiro2.jpg,RIGHT
773,lts4_0402I_01_01,92,0,0,1,712,2/ACEILHOOK.jpg,ACEILHOOK.jpg,RIGHT
774,lts4_0402I_01_01,93,0,0,1,649,ALAB19.jpg,ALAB19.jpg,RIGHT
775,lts4_0402I_01_01,94,2,1,1,665,2-13/ACEILHOOK.jpg,ACEILHOOK.jpg,LEFT
776,lts4_0402I_01_01,95,0,0,1,672,AGARDHOSE.jpg,AGARDHOSE.jpg,RIGHT
777,lts4_0402I_01_01,96,0,0,1,635,ABROWNBAG.jpg,ABROWNBAG.jpg,RIGHT
778,lts4_0402I_01_01,97,64,1,1,729,64-first/ABALLYAR4.jpg,ABALLYAR4.jpg,LEFT
779,lts4_0402I_01_01,98,0,0,1,659,Aflower104.jpg,Aflower104.jpg,RIGHT
780,lts4_0402I_01_01,99,0,0,1,806,26372237.thl.jpg,26372237.thl.jpg,LEFT
781,lts4_0402I_01_01,100,0,0,1,1131,AOTOSCOP5.jpg,AOTOSCOP5.jpg,RIGHT
782,lts4_0402I_01_01,101,0,0,1,529,AGLASSCAS.jpg,AGLASSCAS.jpg,RIGHT
783,lts4_0402I_01_01,102,0,0,1,648,AARTICHO1.jpg,AARTICHO1.jpg,RIGHT
784,lts4_0402I_01_01,103,0,0,1,608,ADOGLEAS2.jpg,ADOGLEAS2.jpg,RIGHT
785,lts4_0402I_01_01,104,0,0,1,677,AANBABYCA.jpg,AANBABYCA.jpg,RIGHT
786,lts4_0402I_01_01,105,0,0,1,559,Awoodplaner2.jpg,Awoodplaner2.jpg,RIGHT
787,lts4_0402I_01_01,106,0,0,1,614,Ashoeform2.jpg,Ashoeform2.jpg,RIGHT
788,lts4_0402I_01_01,107,0,0,1,663,AMIXER.jpg,AMIXER.jpg,RIGHT
789,lts4_0402I_01_01,108,0,0,1,576,64/Anoisma32.jpg,Anoisma32.jpg,RIGHT
790,lts4_0402I_01_01,109,0,0,1,486,AFORKLIF2.jpg,AFORKLIF2.jpg,RIGHT
791,lts4_0402I_01_01,110,0,0,1,467,mouse-a.jpg,mouse-a.jpg,RIGHT
792,lts4_0402I_01_01,111,0,0,1,503,Astreetlampwi.jpg,Astreetlampwi.jpg,RIGHT
793,lts4_0402I_01_01,112,0,0,1,454,26384863.thl.jpg,26384863.thl.jpg,RIGHT
794,lts4_0402I_01_01,113,16,1,1,559,16-mul/ABALLYAR4.jpg,ABALLYAR4.jpg,LEFT
795,lts4_0402I_01_01,114,0,0,1,623,Acase2.jpg,Acase2.jpg,RIGHT
796,lts4_0402I_01_01,115,0,0,1,498,256/26429097.thl.jpg,26429097.thl.jpg,RIGHT
797,lts4_0402I_01_01,116,0,1,1,1038,00-across/Atoy57.jpg,Atoy57.jpg,RIGHT
798,lts4_0402I_01_01,117,0,0,1,1098,D_stove.jpg,D_stove.jpg,LEFT
799,lts4_0402I_01_01,118,0,0,1,570,Acomputerpro3.jpg,Acomputerpro3.jpg,RIGHT
800,lts4_0402I_01_01,119,0,0,1,554,22921112.thl.jpg,22921112.thl.jpg,RIGHT
801,lts4_0402I_01_01,120,32,1,1,735,32-7/ASKYDIVE.jpg,ASKYDIVE.jpg,RIGHT
802,lts4_0402I_01_01,121,0,0,1,579,ACOOKOIL.jpg,ACOOKOIL.jpg,RIGHT
803,lts4_0402I_01_01,122,0,0,1,689,ASPOTLIG2.jpg,ASPOTLIG2.jpg,RIGHT
804,lts4_0402I_01_01,123,0,0,1,522,AWREATH9.jpg,AWREATH9.jpg,RIGHT
805,lts4_0402I_01_01,124,0,0,1,473,4/26373362.thl.jpg,26373362.thl.jpg,RIGHT
806,lts4_0402I_01_01,125,0,0,1,601,ACOFFTRA2.jpg,ACOFFTRA2.jpg,RIGHT
807,lts4_0402I_01_01,126,0,0,1,598,ALIONWALK.jpg,ALIONWALK.jpg,RIGHT
808,lts4_0402I_01_01,127,0,0,1,531,teepee.jpg,teepee.jpg,RIGHT
809,lts4_0402I_01_01,128,4,1,1,665,4-0/26373362.thl.jpg,26373362.thl.jpg,LEFT
810,lts4_0402I_01_01,129,0,0,1,472,32/AFIREPANT.jpg,AFIREPANT.jpg,RIGHT
811,lts4_0402I_01_01,130,0,0,1,531,AMOUSETOY.jpg,AMOUSETOY.jpg,RIGHT
812,lts4_0402I_01_01,131,0,0,1,837,1/Ablouse2.jpg,Ablouse2.jpg,RIGHT
813,lts4_0402I_01_01,132,1,1,1,523,1-7/Ablouse2.jpg,Ablouse2.jpg,LEFT
814,lts4_0402I_01_01,133,0,0,1,514,Amousepad.jpg,Amousepad.jpg,RIGHT
815,lts4_0402I_01_01,134,0,0,1,598,512/30835757.thl.jpg,30835757.thl.jpg,RIGHT
816,lts4_0402I_01_01,135,0,0,1,689,23044458.thl.jpg,23044458.thl.jpg,LEFT
817,lts4_0402I_01_01,136,0,0,1,560,32/cheesies.jpg,cheesies.jpg,RIGHT
818,lts4_0402I_01_01,137,0,0,1,588,26372390.thl.jpg,26372390.thl.jpg,RIGHT
819,lts4_0402I_01_01,138,0,0,1,686,8245207.thl.jpg,8245207.thl.jpg,RIGHT
820,lts4_0402I_01_01,139,0,0,1,568,AWOODENF3.jpg,AWOODENF3.jpg,RIGHT
821,lts4_0402I_01_01,140,0,0,1,528,Apaintedwood3.jpg,Apaintedwood3.jpg,RIGHT
822,lts4_0402I_01_01,141,0,0,1,532,8021515.thl.jpg,8021515.thl.jpg,RIGHT
823,lts4_0402I_01_01,142,0,0,1,485,1/Acrabwalking.jpg,Acrabwalking.jpg,RIGHT
824,lts4_0402I_01_01,143,1,1,1,591,1-6/Acrabwalking.jpg,Acrabwalking.jpg,LEFT
825,lts4_0402I_01_01,144,0,0,1,672,AADZUKIB2.jpg,AADZUKIB2.jpg,RIGHT
826,lts4_0402I_01_01,145,0,1,1,771,00-across/AEGGHOLDE.jpg,AEGGHOLDE.jpg,LEFT
827,lts4_0402I_01_01,146,0,0,1,672,512/Ascarf7.jpg,Ascarf7.jpg,RIGHT
828,lts4_0402I_01_01,147,0,0,1,730,peanutbutter.jpg,peanutbutter.jpg,RIGHT
829,lts4_0402I_01_01,148,0,0,1,772,ACONBENCH.jpg,ACONBENCH.jpg,RIGHT
830,lts4_0402I_01_01,149,0,0,1,746,128/AEXERCBIK.jpg,AEXERCBIK.jpg,RIGHT
831,lts4_0402I_01_01,150,0,0,1,622,34935544.thl.jpg,34935544.thl.jpg,RIGHT
832,lts4_0402I_01_01,151,0,0,1,988,ADANGEAR5.jpg,ADANGEAR5.jpg,RIGHT
833,lts4_0402I_01_01,152,0,0,1,584,labyrinthe.jpg,labyrinthe.jpg,RIGHT
834,lts4_0402I_01_01,153,0,0,1,669,Adayplanner.jpg,Adayplanner.jpg,RIGHT
835,lts4_0402I_01_01,154,0,0,1,554,APAGODAMO.jpg,APAGODAMO.jpg,RIGHT
836,lts4_0402I_01_01,155,0,0,1,615,35310232.thl.jpg,35310232.thl.jpg,RIGHT
837,lts4_0402I_01_01,156,0,0,1,487,Adog122.jpg,Adog122.jpg,RIGHT
838,lts4_0402I_01_01,157,0,0,1,316,AHONEYSTI.jpg,AHONEYSTI.jpg,RIGHT
839,lts4_0402I_01_01,158,0,0,1,406,AWATERFL3.jpg,AWATERFL3.jpg,RIGHT
840,lts4_0402I_01_01,159,0,0,1,437,26374899.thl.jpg,26374899.thl.jpg,RIGHT
841,lts4_0402I_01_01,160,0,0,1,500,ADENSYRIN.jpg,ADENSYRIN.jpg,RIGHT
842,lts4_0402I_01_01,161,32,1,1,714,32-4/AFIREPANT.jpg,AFIREPANT.jpg,LEFT
843,lts4_0402I_01_01,162,0,0,1,586,Afish57.jpg,Afish57.jpg,RIGHT
844,lts4_0402I_01_01,163,0,0,1,599,Acarvedpumpk2.jpg,Acarvedpumpk2.jpg,RIGHT
845,lts4_0402I_01_01,164,0,0,1,576,ATOLLNEGS.jpg,ATOLLNEGS.jpg,RIGHT
846,lts4_0402I_01_01,165,0,0,1,487,64/ASKIHOLD.jpg,ASKIHOLD.jpg,RIGHT
847,lts4_0402I_01_01,166,0,0,1,469,512/Apilldispens3.jpg,Apilldispens3.jpg,RIGHT
848,lts4_0402I_01_01,167,0,0,1,364,ACHINLAMP.jpg,ACHINLAMP.jpg,RIGHT
849,lts4_0402I_01_01,168,32,1,1,597,32-5/cheesies.jpg,cheesies.jpg,LEFT
850,lts4_0402I_01_01,169,0,0,1,462,A_flower.jpg,A_flower.jpg,RIGHT
851,lts4_0402I_01_01,170,0,0,1,569,26421382.thl.jpg,26421382.thl.jpg,RIGHT
852,lts4_0402I_01_01,171,0,0,1,429,32/Atoyball.jpg,Atoyball.jpg,RIGHT
853,lts4_0402I_01_01,172,64,1,1,460,64-first/Anoisma32.jpg,Anoisma32.jpg,RIGHT
854,lts4_0402I_01_01,173,0,0,1,566,Agiraffetoy3.jpg,Agiraffetoy3.jpg,RIGHT
855,lts4_0402I_01_01,174,0,0,1,582,ARICE2.jpg,ARICE2.jpg,RIGHT
856,lts4_0402I_01_01,175,0,0,1,721,AWALKER11.jpg,AWALKER11.jpg,RIGHT
857,lts4_0402I_01_01,176,4,1,1,530,4-mul/Anoisma32.jpg,Anoisma32.jpg,LEFT
858,lts4_0402I_01_01,177,0,0,1,545,1/APALLETT2.jpg,APALLETT2.jpg,RIGHT
859,lts4_0402I_01_01,178,1,1,1,553,1-1/APALLETT2.jpg,APALLETT2.jpg,LEFT
860,lts4_0402I_01_01,179,0,0,1,541,ATHERMO12.jpg,ATHERMO12.jpg,RIGHT
861,lts4_0402I_01_01,180,0,0,1,598,22826748.thl.jpg,22826748.thl.jpg,RIGHT
862,lts4_0402I_01_01,181,0,0,1,566,8/Aplastictestt.jpg,Aplastictestt.jpg,RIGHT
863,lts4_0402I_01_01,182,0,0,1,919,Aantiquepock3.jpg,Aantiquepock3.jpg,RIGHT
864,lts4_0402I_01_01,183,0,0,1,483,ASALAMI.jpg,ASALAMI.jpg,RIGHT
865,lts4_0402I_01_01,184,0,0,1,485,ShoeHorn.jpg,ShoeHorn.jpg,RIGHT
866,lts4_0402I_01_01,185,0,0,1,435,1/AMETSCULP.jpg,AMETSCULP.jpg,RIGHT
867,lts4_0402I_01_01,186,1,1,1,611,1-8/AMETSCULP.jpg,AMETSCULP.jpg,LEFT
868,lts4_0402I_01_01,187,0,0,1,659,8048786.thl.jpg,8048786.thl.jpg,RIGHT
869,lts4_0402I_01_01,188,0,0,1,589,Ahat47.jpg,Ahat47.jpg,RIGHT
870,lts4_0402I_01_01,189,8,1,1,614,8-1/Aplastictestt.jpg,Aplastictestt.jpg,LEFT
871,lts4_0402I_01_01,190,0,0,1,516,Aantiquebuck2.jpg,Aantiquebuck2.jpg,RIGHT
872,lts4_0402I_01_01,191,0,0,1,591,AHEELCUPS.jpg,AHEELCUPS.jpg,RIGHT
873,lts4_0402I_01_01,192,0,0,1,557,Acane116.jpg,Acane116.jpg,RIGHT
874,lts4_0402I_01_01,193,0,0,1,690,Atelecommuni4.jpg,Atelecommuni4.jpg,RIGHT
875,lts4_0402I_01_01,194,0,0,1,474,26374798.thl.jpg,26374798.thl.jpg,RIGHT
876,lts4_0402I_01_01,195,0,0,1,448,ADOLL69.jpg,ADOLL69.jpg,RIGHT
877,lts4_0402I_01_01,196,0,0,1,490,AAIRBOWER.jpg,AAIRBOWER.jpg,RIGHT
878,lts4_0402I_01_01,197,0,0,1,527,Agarbagebag.jpg,Agarbagebag.jpg,RIGHT
879,lts4_0402I_01_01,198,0,0,1,479,Astrawfan.jpg,Astrawfan.jpg,RIGHT
880,lts4_0402I_01_01,199,0,0,1,470,ASTEAMER.jpg,ASTEAMER.jpg,RIGHT
881,lts4_0402I_01_01,200,0,0,1,529,Alipstick3.jpg,Alipstick3.jpg,RIGHT
882,lts4_0402I_01_01,201,0,0,1,694,D_podium.jpg,D_podium.jpg,RIGHT
883,lts4_0402I_01_01,202,0,0,1,707,ARECEIPT.jpg,ARECEIPT.jpg,RIGHT
884,lts4_0402I_01_01,203,32,1,1,629,32-0/Atoyball.jpg,Atoyball.jpg,LEFT
885,lts4_0402I_01_01,204,0,0,1,633,AWEIGHTS8.jpg,AWEIGHTS8.jpg,RIGHT
886,lts4_0402I_01_01,205,0,0,1,581,ASNOWSH11.jpg,ASNOWSH11.jpg,RIGHT
887,lts4_0402I_01_01,206,0,0,1,531,4/ADRIARRA2.jpg,ADRIARRA2.jpg,RIGHT
888,lts4_0402I_01_01,207,0,0,1,505,128/22852560.thl.jpg,22852560.thl.jpg,RIGHT
889,lts4_0402I_01_01,208,0,1,1,751,00-across/Afirstaidkit3.jpg,Afirstaidkit3.jpg,LEFT
890,lts4_0402I_01_01,209,0,0,1,600,36407647.thl.jpg,36407647.thl.jpg,RIGHT
891,lts4_0402I_01_01,210,4,1,1,643,4-9/ADRIARRA2.jpg,ADRIARRA2.jpg,LEFT
892,lts4_0402I_01_01,211,0,0,1,598,4/AAGATE.jpg,AAGATE.jpg,RIGHT
893,lts4_0402I_01_01,212,0,0,1,694,4555.jpg,4555.jpg,RIGHT
894,lts4_0402I_01_01,213,0,0,1,594,tricycle.jpg,tricycle.jpg,RIGHT
895,lts4_0402I_01_01,214,0,0,1,522,ipod01.jpg,ipod01.jpg,RIGHT
896,lts4_0402I_01_01,215,4,1,1,587,4-6/AAGATE.jpg,AAGATE.jpg,LEFT
897,lts4_0402I_01_01,216,0,0,1,508,ATRUNK15.jpg,ATRUNK15.jpg,RIGHT
898,lts4_0402I_01_01,217,0,0,1,552,1/AXMASTIN3.jpg,AXMASTIN3.jpg,RIGHT
899,lts4_0402I_01_01,218,1,1,1,537,1-10/AXMASTIN3.jpg,AXMASTIN3.jpg,RIGHT
900,lts4_0402I_01_01,219,0,0,1,553,ACOWCREAM.jpg,ACOWCREAM.jpg,RIGHT
901,lts4_0402I_01_01,220,0,0,1,515,ACOMPAS20.jpg,ACOMPAS20.jpg,RIGHT
902,lts4_0402I_01_01,221,0,0,1,840,Awomensshoe4.jpg,Awomensshoe4.jpg,RIGHT
903,lts4_0402I_01_01,222,0,0,1,767,AOUTHOUSE.jpg,AOUTHOUSE.jpg,RIGHT
904,lts4_0402I_01_01,223,0,0,1,555,Acork6.jpg,Acork6.jpg,RIGHT
905,lts4_0402I_01_01,224,0,0,1,524,26432607.thl.jpg,26432607.thl.jpg,RIGHT
906,lts4_0402I_01_01,225,0,0,1,574,ACHINBRB4.jpg,ACHINBRB4.jpg,RIGHT
907,lts4_0402I_01_01,226,0,0,1,497,Hammock.jpg,Hammock.jpg,RIGHT
908,lts4_0402I_01_01,227,0,0,1,636,256/ALAMP45.jpg,ALAMP45.jpg,RIGHT
909,lts4_0402I_01_01,228,0,0,1,597,Ababmonit.jpg,Ababmonit.jpg,RIGHT
910,lts4_0402I_01_01,229,64,1,1,587,64-first/ASKIHOLD.jpg,ASKIHOLD.jpg,RIGHT
911,lts4_0402I_01_01,230,0,0,1,580,greenbeans.jpg,greenbeans.jpg,RIGHT
912,lts4_0402I_01_01,231,2,1,1,567,2-mul/ASKIHOLD.jpg,ASKIHOLD.jpg,LEFT
913,lts4_0402I_01_01,232,0,0,1,610,ACRICKET2.jpg,ACRICKET2.jpg,RIGHT
914,lts4_0402I_01_01,233,0,0,1,630,ATHERMO4.jpg,ATHERMO4.jpg,RIGHT
915,lts4_0402I_01_01,234,0,0,1,667,8055181.thl.jpg,8055181.thl.jpg,RIGHT
916,lts4_0402I_01_01,235,0,0,1,623,Aclamp62.jpg,Aclamp62.jpg,RIGHT
917,lts4_0402I_01_01,236,0,0,1,591,22869624.thl.jpg,22869624.thl.jpg,RIGHT
918,lts4_0402I_01_01,237,0,1,1,648,00-across/AANTRAD24.jpg,AANTRAD24.jpg,LEFT
919,lts4_0402I_01_01,238,0,0,1,500,AHAMPER.jpg,AHAMPER.jpg,RIGHT
920,lts4_0402I_01_01,239,0,0,1,555,Apotboilinge2.jpg,Apotboilinge2.jpg,RIGHT
921,lts4_0402I_01_01,240,0,0,1,467,128/Agroundhog.jpg,Agroundhog.jpg,RIGHT
922,lts4_0402I_01_01,241,0,0,1,535,22923524.thl.jpg,22923524.thl.jpg,RIGHT
923,lts4_0402I_01_01,242,0,0,1,776,Aantiquevege3.jpg,Aantiquevege3.jpg,RIGHT
924,lts4_0402I_01_01,243,0,0,1,539,Abeverageingl.jpg,Abeverageingl.jpg,RIGHT
925,lts4_0402I_01_01,244,0,1,1,931,00-across/ANUTS2.jpg,ANUTS2.jpg,LEFT
926,lts4_0402I_01_01,245,0,0,1,620,2/airbottle1.jpg,airbottle1.jpg,RIGHT
927,lts4_0402I_01_01,246,0,0,1,510,Apepperoni.jpg,Apepperoni.jpg,RIGHT
928,lts4_0402I_01_01,247,2,1,1,660,2-12/airbottle1.jpg,airbottle1.jpg,LEFT
929,lts4_0402I_01_01,248,0,0,1,559,ACOFFPOT3.jpg,ACOFFPOT3.jpg,RIGHT
930,lts4_0402I_01_01,249,0,0,1,609,128/eraserbrush.jpg,eraserbrush.jpg,RIGHT
931,lts4_0402I_01_01,250,0,0,1,578,256/Abananasundae.jpg,Abananasundae.jpg,RIGHT
932,lts4_0402I_01_01,251,0,0,1,486,Acprmask2.jpg,Acprmask2.jpg,RIGHT
933,lts4_0402I_01_01,252,0,0,1,567,AHUNTVES2.jpg,AHUNTVES2.jpg,RIGHT
934,lts4_0402I_01_01,253,0,0,1,336,26545643.thl.jpg,26545643.thl.jpg,RIGHT
935,lts4_0402I_01_01,254,0,0,1,478,ANUTCRA10.jpg,ANUTCRA10.jpg,RIGHT
936,lts4_0402I_01_01,255,0,0,1,510,monkeypuppet.jpg,monkeypuppet.jpg,RIGHT
937,lts4_0402I_01_01,256,0,0,1,544,Astackingtoy2.jpg,Astackingtoy2.jpg,RIGHT
938,lts4_0402I_01_01,257,256,1,1,620,256-6/Arockingchai5.jpg,Arockingchai5.jpg,LEFT
939,lts4_0402I_01_01,258,0,0,1,683,candy3.jpg,candy3.jpg,RIGHT
940,lts4_0402I_01_01,259,0,0,1,483,64/ABABYCUP3.jpg,ABABYCUP3.jpg,RIGHT
941,lts4_0402I_01_01,260,0,1,1,778,00-across/Anailbrush3.jpg,Anailbrush3.jpg,LEFT
942,lts4_0402I_01_01,261,0,0,1,569,1/Ascanner11.jpg,Ascanner11.jpg,RIGHT
943,lts4_0402I_01_01,262,1,1,1,926,1-2/Ascanner11.jpg,Ascanner11.jpg,LEFT
944,lts4_0402I_01_01,263,0,0,1,893,Agardeningshe.jpg,Agardeningshe.jpg,RIGHT
945,lts4_0402I_01_01,264,0,1,1,824,00-across/AWINTGLO3.jpg,AWINTGLO3.jpg,LEFT
946,lts4_0402I_01_01,265,0,0,1,827,32/Afoodgrinder2.jpg,Afoodgrinder2.jpg,RIGHT
947,lts4_0402I_01_01,266,0,0,1,589,AGUIRA.jpg,AGUIRA.jpg,RIGHT
948,lts4_0402I_01_01,267,0,0,1,506,AMEDEQUI9.jpg,AMEDEQUI9.jpg,RIGHT
949,lts4_0402I_01_01,268,0,0,1,617,AANGLE.jpg,AANGLE.jpg,RIGHT
950,lts4_0402I_01_01,269,0,0,1,502,64/AFERRAF40.jpg,AFERRAF40.jpg,RIGHT
951,lts4_0402I_01_01,270,0,0,1,473,patioheater.jpg,patioheater.jpg,RIGHT
952,lts4_0402I_01_01,271,0,0,1,497,8/heartchocolat.jpg,heartchocolat.jpg,RIGHT
953,lts4_0402I_01_01,272,0,0,1,579,1/AVIOLINCO.jpg,AVIOLINCO.jpg,RIGHT
954,lts4_0402I_01_01,273,1,1,1,925,1-5/AVIOLINCO.jpg,AVIOLINCO.jpg,LEFT
955,lts4_0402I_01_01,274,0,0,1,890,handcomputerN.JPG,handcomputerN.JPG,RIGHT
956,lts4_0402I_01_01,275,0,0,1,695,8/et060.jpg,et060.jpg,RIGHT
957,lts4_0402I_01_01,276,0,0,1,592,ACROQUET2.jpg,ACROQUET2.jpg,RIGHT
958,lts4_0402I_01_01,277,128,1,1,670,128-5/AEXERCBIK.jpg,AEXERCBIK.jpg,LEFT
959,lts4_0402I_01_01,278,0,0,1,552,Atoychestfor3.jpg,Atoychestfor3.jpg,RIGHT
960,lts4_0402I_01_01,279,8,1,1,790,8-first/heartchocolat.jpg,heartchocolat.jpg,LEFT
961,lts4_0402I_01_01,280,0,0,1,566,Abrickhomeand.jpg,Abrickhomeand.jpg,RIGHT
962,lts4_0402I_01_01,281,2,1,1,704,2-mul/heartchocolat.jpg,heartchocolat.jpg,LEFT
963,lts4_0402I_01_01,282,0,0,1,874,Abuilding5.jpg,Abuilding5.jpg,RIGHT
964,lts4_0402I_01_01,283,8,1,1,784,8-2/et060.jpg,et060.jpg,LEFT
965,lts4_0402I_01_01,284,0,0,1,695,Achick9.jpg,Achick9.jpg,RIGHT
966,lts4_0402I_01_01,285,0,0,1,504,64/22822309.thl.jpg,22822309.thl.jpg,RIGHT
967,lts4_0402I_01_01,286,0,0,1,477,Atropicalpine.jpg,Atropicalpine.jpg,RIGHT
968,lts4_0402I_01_01,287,0,0,1,413,petfood.jpg,petfood.jpg,RIGHT
969,lts4_0402I_01_01,288,0,0,1,413,AMOSQAMBE.jpg,AMOSQAMBE.jpg,RIGHT
970,lts4_0402I_01_01,289,0,0,1,458,Abikepedalar2.jpg,Abikepedalar2.jpg,RIGHT
971,lts4_0402I_01_01,290,0,0,1,415,8029214.thl.jpg,8029214.thl.jpg,RIGHT
972,lts4_0402I_01_01,291,0,0,1,519,mickeycap.jpg,mickeycap.jpg,RIGHT
973,lts4_0402I_01_01,292,0,0,1,554,8/AOVENMIT5.jpg,AOVENMIT5.jpg,RIGHT
974,lts4_0402I_01_01,293,0,0,1,465,128/AANTLION2.jpg,AANTLION2.jpg,RIGHT
975,lts4_0402I_01_01,294,0,0,1,548,22824840.thl.jpg,22824840.thl.jpg,RIGHT
976,lts4_0402I_01_01,295,0,0,1,616,Afan49.jpg,Afan49.jpg,RIGHT
977,lts4_0402I_01_01,296,0,0,1,560,Areindeer2.jpg,Areindeer2.jpg,RIGHT
978,lts4_0402I_01_01,297,32,1,1,675,32-1/Afoodgrinder2.jpg,Afoodgrinder2.jpg,LEFT
979,lts4_0402I_01_01,298,0,0,1,581,16/Agarlicclove2.jpg,Agarlicclove2.jpg,RIGHT
980,lts4_0402I_01_01,299,0,0,1,545,26419025.thl.jpg,26419025.thl.jpg,RIGHT
981,lts4_0402I_01_01,300,8,1,1,627,8-first/AOVENMIT5.jpg,AOVENMIT5.jpg,LEFT
982,lts4_0402I_01_01,301,0,0,1,553,Acow60.jpg,Acow60.jpg,RIGHT
983,lts4_0402I_01_01,302,256,1,1,713,256-4/Ashark7.jpg,Ashark7.jpg,LEFT
984,lts4_0402I_01_01,303,0,0,1,577,slide.jpg,slide.jpg,RIGHT
985,lts4_0402I_01_01,304,4,1,1,703,4-mul/AOVENMIT5.jpg,AOVENMIT5.jpg,LEFT
986,lts4_0402I_01_01,305,0,0,1,499,Awindmill3.jpg,Awindmill3.jpg,RIGHT
987,lts4_0402I_01_01,306,0,0,1,552,Aoutdoorprop3.jpg,Aoutdoorprop3.jpg,RIGHT
988,lts4_0402I_01_01,307,0,0,1,505,Astadium.jpg,Astadium.jpg,RIGHT
989,lts4_0402I_01_01,308,0,0,1,514,blueberriespack.jpg,blueberriespack.jpg,RIGHT
990,lts4_0402I_01_01,309,0,0,1,553,ADINROO16.jpg,ADINROO16.jpg,RIGHT
991,lts4_0402I_01_01,310,0,0,1,430,8065674.thl.jpg,8065674.thl.jpg,RIGHT
992,lts4_0402I_01_01,311,0,0,1,426,26466347.thl.jpg,26466347.thl.jpg,RIGHT
993,lts4_0402I_01_01,312,0,0,1,556,ALINENCA3.jpg,ALINENCA3.jpg,RIGHT
994,lts4_0402I_01_01,313,0,0,1,461,Ahousboa2.jpg,Ahousboa2.jpg,RIGHT
995,lts4_0402I_01_01,314,16,1,1,422,16-first/Agarlicclove2.jpg,Agarlicclove2.jpg,RIGHT
996,lts4_0402I_01_01,315,0,0,1,483,Apostalscale2.jpg,Apostalscale2.jpg,RIGHT
997,lts4_0402I_01_01,316,2,1,1,1128,2-mul/Agarlicclove2.jpg,Agarlicclove2.jpg,LEFT
998,lts4_0402I_01_01,317,0,0,1,467,26379054.thl.jpg,26379054.thl.jpg,RIGHT
999,lts4_0402I_01_01,318,0,0,1,648,2/ACOUPLEF2.jpg,ACOUPLEF2.jpg,RIGHT
1000,lts4_0402I_01_01,319,0,0,1,1061,ABUSINEST.jpg,ABUSINEST.jpg,LEFT
1001,lts4_0402I_01_01,320,2,1,1,537,2-9/ACOUPLEF2.jpg,ACOUPLEF2.jpg,RIGHT
1002,lts4_0402I_01_01,321,0,0,1,629,A_teabag.jpg,A_teabag.jpg,RIGHT
1003,lts4_0402I_01_01,322,0,0,1,721,Apaintroller2.jpg,Apaintroller2.jpg,RIGHT
1004,lts4_0402I_01_01,323,64,1,1,390,64-first/ABABYCUP3.jpg,ABABYCUP3.jpg,RIGHT
1005,lts4_0402I_01_01,324,0,0,1,700,Arubberducky2.jpg,Arubberducky2.jpg,RIGHT
1006,lts4_0402I_01_01,325,0,0,1,614,4/APICKLES6.jpg,APICKLES6.jpg,RIGHT
1007,lts4_0402I_01_01,326,0,0,1,770,Aseeder2.jpg,Aseeder2.jpg,RIGHT
1008,lts4_0402I_01_01,327,0,0,1,567,16/Aruler12.jpg,Aruler12.jpg,RIGHT
1009,lts4_0402I_01_01,328,0,0,1,470,128/buffalowings.jpg,buffalowings.jpg,RIGHT
1010,lts4_0402I_01_01,329,4,1,1,702,4-3/APICKLES6.jpg,APICKLES6.jpg,LEFT
1011,lts4_0402I_01_01,330,0,0,1,702,1/elecmap.jpg,elecmap.jpg,RIGHT
1012,lts4_0402I_01_01,331,1,1,1,796,1-14/elecmap.jpg,elecmap.jpg,LEFT
1013,lts4_0402I_01_01,332,0,0,1,660,Atoyswing.jpg,Atoyswing.jpg,RIGHT
1014,lts4_0402I_01_01,333,64,1,1,812,64-first/AFERRAF40.jpg,AFERRAF40.jpg,LEFT
1015,lts4_0402I_01_01,334,0,0,1,584,23014927.thl.jpg,23014927.thl.jpg,RIGHT
1016,lts4_0402I_01_01,335,128,1,1,833,128-7/22852560.thl.jpg,22852560.thl.jpg,LEFT
1017,lts4_0402I_01_01,336,0,0,1,799,ALIQBOOK.jpg,ALIQBOOK.jpg,RIGHT
1018,lts4_0402I_01_01,337,4,1,1,574,4-mul/AFERRAF40.jpg,AFERRAF40.jpg,LEFT
1019,lts4_0402I_01_01,338,0,0,1,678,AMUSICSTA.jpg,AMUSICSTA.jpg,RIGHT
1020,lts4_0402I_01_01,339,16,1,1,478,16-mul/ABABYCUP3.jpg,ABABYCUP3.jpg,LEFT
1021,lts4_0402I_01_01,340,0,0,1,601,AWASHRACK.jpg,AWASHRACK.jpg,RIGHT
1022,lts4_0402I_01_01,341,0,0,1,738,ASEASH8.jpg,ASEASH8.jpg,RIGHT
1023,lts4_0402I_01_01,342,0,0,1,547,AFRENCHF2.jpg,AFRENCHF2.jpg,RIGHT
1024,lts4_0402I_01_01,343,16,1,1,538,16-first/Aruler12.jpg,Aruler12.jpg,LEFT
1025,lts4_0402I_01_01,344,0,0,1,594,AMANJUI2.jpg,AMANJUI2.jpg,RIGHT
1026,lts4_0402I_01_01,345,2,1,1,461,2-mul/Aruler12.jpg,Aruler12.jpg,LEFT
1027,lts4_0402I_01_01,346,0,0,1,506,256/AAIRPORTC.jpg,AAIRPORTC.jpg,RIGHT
1028,lts4_0402I_01_01,347,0,0,1,613,APANTRAC2.jpg,APANTRAC2.jpg,RIGHT
1029,lts4_0402I_01_01,348,0,0,1,541,10049193.thl.jpg,10049193.thl.jpg,RIGHT
1030,lts4_0402I_01_01,349,64,1,1,647,64-first/22822309.thl.jpg,22822309.thl.jpg,LEFT
1031,lts4_0402I_01_01,350,0,0,1,656,ASHAVING9.jpg,ASHAVING9.jpg,RIGHT
1032,lts4_0402I_01_01,351,2,1,1,491,2-mul/22822309.thl.jpg,22822309.thl.jpg,LEFT
1033,lts4_0402I_01_01,352,0,0,1,772,4/Aelectronicg9.jpg,Aelectronicg9.jpg,RIGHT
1034,lts4_0402I_01_01,353,0,0,1,579,26282693.thl.jpg,26282693.thl.jpg,RIGHT
1035,lts4_0402I_01_01,354,0,1,1,734,00-across/26421572.thl.jpg,26421572.thl.jpg,LEFT
1036,lts4_0402I_01_01,355,0,0,1,464,23065398.thl.jpg,23065398.thl.jpg,RIGHT
1037,lts4_0402I_01_01,356,4,1,1,551,4-4/Aelectronicg9.jpg,Aelectronicg9.jpg,LEFT
1038,lts4_0402I_01_01,357,0,0,1,542,22854108.thl.jpg,22854108.thl.jpg,RIGHT
1039,lts4_0402I_01_01,358,0,0,1,551,ABLLIGHTB.jpg,ABLLIGHTB.jpg,RIGHT
1040,lts4_0402I_01_01,359,0,0,1,511,AFIRSTA15.jpg,AFIRSTA15.jpg,RIGHT
1041,lts4_0402I_01_01,360,0,0,1,835,1/Acomputerdriv.jpg,Acomputerdriv.jpg,RIGHT
1042,lts4_0402I_01_01,361,1,1,1,564,1-4/Acomputerdriv.jpg,Acomputerdriv.jpg,LEFT
1043,lts4_0402I_01_01,362,0,0,1,539,26431395.thl.jpg,26431395.thl.jpg,RIGHT
1044,lts4_0402I_01_01,363,0,0,1,511,ATAMBOURI.jpg,ATAMBOURI.jpg,RIGHT
1045,lts4_0402I_01_01,364,0,0,1,884,128/8078142.thl.jpg,8078142.thl.jpg,LEFT
1046,lts4_0402I_01_01,365,0,0,1,497,AMINITRE7.jpg,AMINITRE7.jpg,RIGHT
1047,lts4_0402I_01_01,366,0,0,1,627,AWOODSPAT.jpg,AWOODSPAT.jpg,RIGHT
1048,lts4_0402I_01_01,367,0,0,1,642,Agratedchees2.jpg,Agratedchees2.jpg,RIGHT
1049,lts4_0402I_01_01,368,128,1,1,892,128-1/Agroundhog.jpg,Agroundhog.jpg,LEFT
1050,lts4_0402I_01_01,369,0,0,1,725,26374146.thl.jpg,26374146.thl.jpg,RIGHT
1051,lts4_0402I_01_01,370,0,0,1,545,Aantiquecigar.jpg,Aantiquecigar.jpg,RIGHT
1052,lts4_0402I_01_01,371,256,1,1,522,256-5/26429097.thl.jpg,26429097.thl.jpg,RIGHT
1053,lts4_0402I_01_01,372,0,0,1,572,32/Alaundrybask2.jpg,Alaundrybask2.jpg,RIGHT
1054,lts4_0402I_01_01,373,0,0,1,685,26432173.thl.jpg,26432173.thl.jpg,RIGHT
1055,lts4_0402I_01_01,374,0,0,1,728,ASOPRASAX.jpg,ASOPRASAX.jpg,RIGHT
1056,lts4_0402I_01_01,375,0,0,1,637,ALITTERSC.jpg,ALITTERSC.jpg,RIGHT
1057,lts4_0402I_01_01,376,0,0,1,587,AWASMACH.jpg,AWASMACH.jpg,RIGHT
1058,lts4_0402I_01_01,377,128,1,1,581,128-3/eraserbrush.jpg,eraserbrush.jpg,RIGHT
1059,lts4_0402I_01_01,378,0,0,1,752,Afoodproces13.jpg,Afoodproces13.jpg,RIGHT
1060,lts4_0402I_01_01,379,0,0,1,923,ASALTPEPP.jpg,ASALTPEPP.jpg,RIGHT
1061,lts4_0402I_01_01,380,0,0,1,678,16/AELECSAW.jpg,AELECSAW.jpg,RIGHT
1062,lts4_0402I_01_01,381,0,0,1,696,ASERVICEB.jpg,ASERVICEB.jpg,RIGHT
1063,lts4_0402I_01_01,382,0,0,1,622,ATOWELRA3.jpg,ATOWELRA3.jpg,RIGHT
1064,lts4_0402I_01_01,383,0,0,1,728,AHEADLI18.jpg,AHEADLI18.jpg,RIGHT
1065,lts4_0402I_01_01,384,0,0,1,579,8/Astaircase.jpg,Astaircase.jpg,RIGHT
1066,lts4_0402I_01_01,385,0,0,1,624,driedprune.jpg,driedprune.jpg,RIGHT
1067,lts4_0402I_01_01,386,0,0,1,752,256/Atoy21.jpg,Atoy21.jpg,RIGHT
1068,lts4_0402I_01_01,387,0,0,1,712,2/baseball.JPG,baseball.JPG,RIGHT
1069,lts4_0402I_01_01,388,0,0,1,899,Atennisball2.jpg,Atennisball2.jpg,RIGHT
1070,lts4_0402I_01_01,389,2,1,1,790,2-6/baseball.JPG,baseball.JPG,LEFT
1071,lts4_0402I_01_01,390,0,0,1,676,Abicyclekick2.jpg,Abicyclekick2.jpg,RIGHT
1072,lts4_0402I_01_01,391,0,0,1,560,22908308.thl.jpg,22908308.thl.jpg,RIGHT
1073,lts4_0402I_01_01,392,8,1,1,649,8-first/Astaircase.jpg,Astaircase.jpg,LEFT
1074,lts4_0402I_01_01,393,0,0,1,652,Aconnector2.jpg,Aconnector2.jpg,RIGHT
1075,lts4_0402I_01_01,394,2,1,1,559,2-mul/Astaircase.jpg,Astaircase.jpg,LEFT
1076,lts4_0402I_01_01,395,0,0,1,639,razorscooter.jpg,razorscooter.jpg,RIGHT
1077,lts4_0402I_01_01,396,16,1,1,555,16-first/AELECSAW.jpg,AELECSAW.jpg,RIGHT
1078,lts4_0402I_01_01,397,0,0,1,662,26391079.thl.jpg,26391079.thl.jpg,RIGHT
1079,lts4_0402I_01_01,398,0,0,1,605,AHUMIDIFI.jpg,AHUMIDIFI.jpg,RIGHT
1080,lts4_0402I_01_01,399,0,0,1,580,ACOLUMN5.jpg,ACOLUMN5.jpg,RIGHT
1081,lts4_0402I_01_01,400,4,1,1,600,4-mul/AELECSAW.jpg,AELECSAW.jpg,LEFT
1082,lts4_0402I_01_01,401,0,0,1,555,ATOWRACK3.jpg,ATOWRACK3.jpg,RIGHT
1083,lts4_0402I_01_01,402,0,0,1,610,ABREADTO2.jpg,ABREADTO2.jpg,RIGHT
1084,lts4_0402I_01_01,403,0,0,1,588,ALINTREMO.jpg,ALINTREMO.jpg,RIGHT
1085,lts4_0402I_01_01,404,32,1,1,682,32-3/Alaundrybask2.jpg,Alaundrybask2.jpg,LEFT
1086,lts4_0402I_01_01,405,0,0,1,720,ACASSETT2.jpg,ACASSETT2.jpg,RIGHT
1087,lts4_0402I_01_01,406,0,0,1,581,4/ACOMPACT.jpg,ACOMPACT.jpg,RIGHT
1088,lts4_0402I_01_01,407,0,0,1,543,Apeanut3.jpg,Apeanut3.jpg,RIGHT
1089,lts4_0402I_01_01,408,0,0,1,630,Acompass18.jpg,Acompass18.jpg,RIGHT
1090,lts4_0402I_01_01,409,0,0,1,598,supersmilefloss.jpg,supersmilefloss.jpg,RIGHT
1091,lts4_0402I_01_01,410,4,1,1,587,4-1/ACOMPACT.jpg,ACOMPACT.jpg,LEFT
1092,lts4_0402I_01_01,411,0,0,1,518,AWOODFLUT.jpg,AWOODFLUT.jpg,RIGHT
1093,lts4_0402I_01_01,412,0,0,1,549,Acanister10.jpg,Acanister10.jpg,RIGHT
1094,lts4_0402I_01_01,413,0,0,1,495,Abaggcon2.jpg,Abaggcon2.jpg,RIGHT
1095,lts4_0402I_01_01,414,0,0,1,549,Abasketandch2.jpg,Abasketandch2.jpg,RIGHT
1096,lts4_0402I_01_01,415,0,0,1,627,APOTWHOLE.jpg,APOTWHOLE.jpg,RIGHT
1097,lts4_0402I_01_01,416,0,0,1,579,AHOSPLIF2.jpg,AHOSPLIF2.jpg,RIGHT
1098,lts4_0402I_01_01,417,0,0,1,604,cough_medicine.jpg,cough_medicine.jpg,RIGHT
1099,lts4_0402I_01_01,418,0,0,1,510,AWASHPART.jpg,AWASHPART.jpg,RIGHT
1100,lts4_0402I_01_01,419,0,0,1,799,16/APICKLE.jpg,APICKLE.jpg,RIGHT
1101,lts4_0402I_01_01,420,0,0,1,602,8056402.thl.jpg,8056402.thl.jpg,RIGHT
1102,lts4_0402I_01_01,421,128,1,1,715,128-0/AANTLION2.jpg,AANTLION2.jpg,LEFT
1103,lts4_0402I_01_01,422,0,0,1,808,ANAPRINGS.jpg,ANAPRINGS.jpg,RIGHT
1104,lts4_0402I_01_01,423,0,0,1,694,ACUSTMACH.jpg,ACUSTMACH.jpg,LEFT
1105,lts4_0402I_01_01,424,0,0,1,733,26444138.thl.jpg,26444138.thl.jpg,RIGHT
1106,lts4_0402I_01_01,425,0,0,1,545,26456480.thl.jpg,26456480.thl.jpg,RIGHT
1107,lts4_0402I_01_01,426,0,0,1,619,Abellcookiec3.jpg,Abellcookiec3.jpg,RIGHT
1108,lts4_0402I_01_01,427,0,0,1,649,Atrumpetwith2.jpg,Atrumpetwith2.jpg,RIGHT
1109,lts4_0402I_01_01,428,0,0,1,534,26384637.thl.jpg,26384637.thl.jpg,RIGHT
1110,lts4_0402I_01_01,429,0,0,1,574,4/ADARKLAMP.jpg,ADARKLAMP.jpg,RIGHT
1111,lts4_0402I_01_01,430,0,0,1,745,fireking-file-cabinet.jpg,fireking-file-cabinet.jpg,RIGHT
1112,lts4_0402I_01_01,431,0,0,1,584,APLANMOD.jpg,APLANMOD.jpg,RIGHT
1113,lts4_0402I_01_01,432,0,0,1,587,Atoiletplung2.jpg,Atoiletplung2.jpg,RIGHT
1114,lts4_0402I_01_01,433,4,1,1,570,4-10/ADARKLAMP.jpg,ADARKLAMP.jpg,LEFT
1115,lts4_0402I_01_01,434,0,0,1,581,8/ABLACSUI3.jpg,ABLACSUI3.jpg,RIGHT
1116,lts4_0402I_01_01,435,16,1,1,542,16-0/APICKLE.jpg,APICKLE.jpg,LEFT
1117,lts4_0402I_01_01,436,0,0,1,584,AAFRICIN2.jpg,AAFRICIN2.jpg,RIGHT
1118,lts4_0402I_01_01,437,0,0,1,489,changepurse03.jpg,changepurse03.jpg,RIGHT
1119,lts4_0402I_01_01,438,0,0,1,672,8/AHANDLE5.jpg,AHANDLE5.jpg,RIGHT
1120,lts4_0402I_01_01,439,0,0,1,511,AABSTRACT.jpg,AABSTRACT.jpg,RIGHT
1121,lts4_0402I_01_01,440,0,0,1,606,AGLASSTAB.jpg,AGLASSTAB.jpg,RIGHT
1122,lts4_0402I_01_01,441,0,0,1,669,8021743.thl.jpg,8021743.thl.jpg,RIGHT
1123,lts4_0402I_01_01,442,8,1,1,567,8-first/ABLACSUI3.jpg,ABLACSUI3.jpg,LEFT
1124,lts4_0402I_01_01,443,0,0,1,693,Apenandcase10.jpg,Apenandcase10.jpg,RIGHT
1125,lts4_0402I_01_01,444,0,0,1,632,AHOCKPANT.jpg,AHOCKPANT.jpg,RIGHT
1126,lts4_0402I_01_01,445,0,0,1,750,64/ACLOWSTE5.jpg,ACLOWSTE5.jpg,LEFT
1127,lts4_0402I_01_01,446,8,1,1,621,8-first/AHANDLE5.jpg,AHANDLE5.jpg,LEFT
1128,lts4_0402I_01_01,447,0,0,1,515,1/26387568.thl.jpg,26387568.thl.jpg,RIGHT
1129,lts4_0402I_01_01,448,1,1,1,553,1-13/26387568.thl.jpg,26387568.thl.jpg,LEFT
1130,lts4_0402I_01_01,449,0,0,1,539,ATALSTAN3.jpg,ATALSTAN3.jpg,RIGHT
1131,lts4_0402I_01_01,450,4,1,1,583,4-mul/AHANDLE5.jpg,AHANDLE5.jpg,LEFT
1132,lts4_0402I_01_01,451,0,0,1,625,knife01.jpg,knife01.jpg,RIGHT
1133,lts4_0402I_01_01,452,0,0,1,537,APILHELM2.jpg,APILHELM2.jpg,RIGHT
1134,lts4_0402I_01_01,453,0,0,1,563,leek.jpg,leek.jpg,RIGHT
1135,lts4_0402I_01_01,454,0,0,1,509,8/Apizzadoughin.jpg,Apizzadoughin.jpg,RIGHT
1136,lts4_0402I_01_01,455,0,0,1,395,Achest20.jpg,Achest20.jpg,RIGHT
1137,lts4_0402I_01_01,456,128,1,1,489,128-2/buffalowings.jpg,buffalowings.jpg,RIGHT
1138,lts4_0402I_01_01,457,0,0,1,484,Atoyworm.jpg,Atoyworm.jpg,RIGHT
1139,lts4_0402I_01_01,458,16,1,1,552,16-mul/ABLACSUI3.jpg,ABLACSUI3.jpg,LEFT
1140,lts4_0402I_01_01,459,0,0,1,581,Atoycoffeepo2.jpg,Atoycoffeepo2.jpg,RIGHT
1141,lts4_0402I_01_01,460,0,0,1,512,26425112.thl.jpg,26425112.thl.jpg,RIGHT
1142,lts4_0402I_01_01,461,0,0,1,617,16/Abat5.jpg,Abat5.jpg,RIGHT
1143,lts4_0402I_01_01,462,8,1,1,780,8-first/Apizzadoughin.jpg,Apizzadoughin.jpg,LEFT
1144,lts4_0402I_01_01,463,0,0,1,396,AHUBBLE.jpg,AHUBBLE.jpg,RIGHT
1145,lts4_0402I_01_01,464,2,1,1,683,2-mul/Apizzadoughin.jpg,Apizzadoughin.jpg,LEFT
1146,lts4_0402I_01_01,465,0,0,1,917,2/Abox80.jpg,Abox80.jpg,RIGHT
1147,lts4_0402I_01_01,466,0,0,1,775,Aonewaysign2.jpg,Aonewaysign2.jpg,LEFT
1148,lts4_0402I_01_01,467,2,1,1,903,2-3/Abox80.jpg,Abox80.jpg,LEFT
1149,lts4_0402I_01_01,468,0,0,1,502,AHALLOWE3.jpg,AHALLOWE3.jpg,RIGHT
1150,lts4_0402I_01_01,469,0,0,1,546,orientalvase.jpg,orientalvase.jpg,RIGHT
1151,lts4_0402I_01_01,470,0,0,1,602,sntslrc.jpg,sntslrc.jpg,RIGHT
1152,lts4_0402I_01_01,471,0,0,1,527,4/Ababycup2.jpg,Ababycup2.jpg,RIGHT
1153,lts4_0402I_01_01,472,0,0,1,588,1/26373844.thl.jpg,26373844.thl.jpg,RIGHT
1154,lts4_0402I_01_01,473,1,1,1,764,1-0/26373844.thl.jpg,26373844.thl.jpg,LEFT
1155,lts4_0402I_01_01,474,0,0,1,540,ARELSCU49.jpg,ARELSCU49.jpg,RIGHT
1156,lts4_0402I_01_01,475,4,1,1,530,4-8/Ababycup2.jpg,Ababycup2.jpg,LEFT
1157,lts4_0402I_01_01,476,0,0,1,569,ABLACKNEC.jpg,ABLACKNEC.jpg,RIGHT
1158,lts4_0402I_01_01,477,16,1,1,506,16-first/Abat5.jpg,Abat5.jpg,LEFT
1159,lts4_0402I_01_01,478,0,0,1,500,26421368.thl.jpg,26421368.thl.jpg,RIGHT
1160,lts4_0402I_01_01,479,2,1,1,470,2-mul/Abat5.jpg,Abat5.jpg,LEFT
1161,lts4_0402I_01_01,480,0,0,1,510,AWATERING.jpg,AWATERING.jpg,RIGHT
1162,lts4_0402I_01_01,481,0,0,1,460,4/A95CHEROK.jpg,A95CHEROK.jpg,RIGHT
1163,lts4_0402I_01_01,482,0,0,1,503,ADUSTER5.jpg,ADUSTER5.jpg,RIGHT
1164,lts4_0402I_01_01,483,256,1,1,909,256-2/ALAMP45.jpg,ALAMP45.jpg,RIGHT
1165,lts4_0402I_01_01,484,0,0,1,571,Acannedaspa10.jpg,Acannedaspa10.jpg,RIGHT
1166,lts4_0402I_01_01,485,4,1,1,1053,4-2/A95CHEROK.jpg,A95CHEROK.jpg,LEFT
1167,lts4_0402I_01_01,486,0,0,1,590,26387641.thl.jpg,26387641.thl.jpg,RIGHT
1168,lts4_0402I_01_01,487,0,0,1,563,ASHAKER2.jpg,ASHAKER2.jpg,RIGHT
1169,lts4_0402I_01_01,488,0,0,1,571,128/AAIRGAUGE.jpg,AAIRGAUGE.jpg,RIGHT
1170,lts4_0402I_01_01,489,0,0,1,557,Abasket108.jpg,Abasket108.jpg,RIGHT
1171,lts4_0402I_01_01,490,0,0,1,527,32/ADRUMSET3.jpg,ADRUMSET3.jpg,RIGHT
1172,lts4_0402I_01_01,491,0,0,1,576,23025535.thl.jpg,23025535.thl.jpg,RIGHT
1173,lts4_0402I_01_01,492,128,1,1,1100,128-6/8078142.thl.jpg,8078142.thl.jpg,LEFT
1174,lts4_0402I_01_01,493,0,0,1,733,Astingray2.jpg,Astingray2.jpg,RIGHT
1175,lts4_0402I_01_01,494,0,0,1,566,Atool62.jpg,Atool62.jpg,RIGHT
1176,lts4_0402I_01_01,495,0,0,1,707,16/26424478.thl.jpg,26424478.thl.jpg,RIGHT
1177,lts4_0402I_01_01,496,0,0,1,479,8052266.thl.jpg,8052266.thl.jpg,RIGHT
1178,lts4_0402I_01_01,497,0,0,1,373,16/26556936.thl.jpg,26556936.thl.jpg,RIGHT
1179,lts4_0402I_01_01,498,0,0,1,416,Aribbon21.jpg,Aribbon21.jpg,RIGHT
1180,lts4_0402I_01_01,499,0,0,1,508,AMIRRORT2.jpg,AMIRRORT2.jpg,RIGHT
1181,lts4_0402I_01_01,500,0,0,1,527,8019684.thl.jpg,8019684.thl.jpg,RIGHT
1182,lts4_0402I_01_01,501,0,0,1,559,AELECTHE4.jpg,AELECTHE4.jpg,RIGHT
1183,lts4_0402I_01_01,502,0,0,1,777,APILLS9.jpg,APILLS9.jpg,RIGHT
1184,lts4_0402I_01_01,503,0,0,1,670,32/26440629.thl.jpg,26440629.thl.jpg,RIGHT
1185,lts4_0402I_01_01,504,0,0,1,699,26555896.thl.jpg,26555896.thl.jpg,RIGHT
1186,lts4_0402I_01_01,505,0,0,1,598,32/26437080.thl.jpg,26437080.thl.jpg,RIGHT
1187,lts4_0402I_01_01,506,256,1,1,542,256-0/Abananasundae.jpg,Abananasundae.jpg,RIGHT
1188,lts4_0402I_01_01,507,0,0,1,734,Aslippers2.jpg,Aslippers2.jpg,RIGHT
1189,lts4_0402I_01_01,508,0,0,1,603,8027086.thl.jpg,8027086.thl.jpg,RIGHT
1190,lts4_0402I_01_01,509,64,1,1,1116,64-first/ACLOWSTE5.jpg,ACLOWSTE5.jpg,LEFT
1191,lts4_0402I_01_01,510,0,0,1,555,D_exercisebike.jpg,D_exercisebike.jpg,RIGHT
1192,lts4_0402I_01_01,511,16,1,1,797,16-first/26424478.thl.jpg,26424478.thl.jpg,LEFT
1193,lts4_0402I_01_01,512,0,0,1,706,AHOSPCAR3.jpg,AHOSPCAR3.jpg,LEFT
1194,lts4_0402I_01_01,513,16,1,1,679,16-first/26556936.thl.jpg,26556936.thl.jpg,LEFT
1195,lts4_0402I_01_01,514,0,0,1,678,64/Apumpcart2.jpg,Apumpcart2.jpg,RIGHT
1196,lts4_0402I_01_01,515,0,0,1,713,8021410.thl.jpg,8021410.thl.jpg,RIGHT
1197,lts4_0402I_01_01,516,0,0,1,555,Acanadagoose.jpg,Acanadagoose.jpg,RIGHT
1198,lts4_0402I_01_01,517,4,1,1,971,4-mul/26556936.thl.jpg,26556936.thl.jpg,LEFT
1199,lts4_0402I_01_01,518,0,0,1,563,Atoycoil.jpg,Atoycoil.jpg,RIGHT
1200,lts4_0402I_01_01,519,0,0,1,561,Afrog45.jpg,Afrog45.jpg,RIGHT
1201,lts4_0402I_01_01,520,0,0,1,543,ABIRDCAG2.jpg,ABIRDCAG2.jpg,RIGHT
1202,lts4_0402I_01_01,521,0,0,1,543,AALIEN.jpg,AALIEN.jpg,RIGHT
1203,lts4_0402I_01_01,522,32,1,1,656,32-6/ADRUMSET3.jpg,ADRUMSET3.jpg,LEFT
1204,lts4_0402I_01_01,523,0,0,1,513,26465824.thl.jpg,26465824.thl.jpg,RIGHT
1205,lts4_0402I_01_01,524,0,0,1,543,AGARBCAN.jpg,AGARBCAN.jpg,RIGHT
1206,lts4_0402I_01_01,525,16,1,1,512,16-mul/ACLOWSTE5.jpg,ACLOWSTE5.jpg,LEFT
1207,lts4_0402I_01_01,526,0,0,1,573,Acampingknife.jpg,Acampingknife.jpg,RIGHT
1208,lts4_0402I_01_01,527,16,1,1,981,16-mul/26424478.thl.jpg,26424478.thl.jpg,LEFT
1209,lts4_0402I_01_01,528,0,0,1,583,Adog71.jpg,Adog71.jpg,RIGHT
1210,lts4_0402I_01_01,529,0,0,1,573,Adecorati133.jpg,Adecorati133.jpg,RIGHT
1211,lts4_0402I_01_01,530,0,0,1,570,ADINGHY.jpg,ADINGHY.jpg,RIGHT
1212,lts4_0402I_01_01,531,0,0,1,516,23060574.thl.jpg,23060574.thl.jpg,RIGHT
1213,lts4_0402I_01_01,532,0,0,1,669,Astatue113.jpg,Astatue113.jpg,RIGHT
1214,lts4_0402I_01_01,533,0,0,1,786,Arunningshoe4.jpg,Arunningshoe4.jpg,RIGHT
1215,lts4_0402I_01_01,534,0,0,1,506,AGHOST.jpg,AGHOST.jpg,RIGHT
1216,lts4_0402I_01_01,535,32,1,1,590,32-2/26440629.thl.jpg,26440629.thl.jpg,LEFT
1217,lts4_0402I_01_01,536,0,0,1,500,AFUNNEL4.jpg,AFUNNEL4.jpg,RIGHT
1218,lts4_0402I_01_01,537,32,1,1,546,32-8/26437080.thl.jpg,26437080.thl.jpg,RIGHT
1219,lts4_0402I_01_01,538,0,0,1,548,Ascarf3.jpg,Ascarf3.jpg,RIGHT
1220,lts4_0402I_01_01,539,0,0,1,683,8024597.thl.jpg,8024597.thl.jpg,RIGHT
1221,lts4_0402I_01_01,540,0,0,1,600,Aumbrellasta2.jpg,Aumbrellasta2.jpg,RIGHT
1222,lts4_0402I_01_01,541,0,0,1,567,26425322.thl.jpg,26425322.thl.jpg,RIGHT
1223,lts4_0402I_01_01,542,0,0,1,607,APOGO4.jpg,APOGO4.jpg,RIGHT
1224,lts4_0402I_01_01,543,0,0,1,523,26440261.thl.jpg,26440261.thl.jpg,RIGHT
1225,lts4_0402I_01_01,544,0,0,1,515,26379570.thl.jpg,26379570.thl.jpg,RIGHT
1226,lts4_0402I_01_01,545,0,0,1,587,quiche.jpg,quiche.jpg,RIGHT
1227,lts4_0402I_01_01,546,0,0,1,730,AKNEEHAMR.jpg,AKNEEHAMR.jpg,RIGHT
1228,lts4_0402I_01_01,547,0,0,1,489,Abowlofpasta.jpg,Abowlofpasta.jpg,RIGHT
1229,lts4_0402I_01_01,548,0,0,1,539,Abulbprotect2.jpg,Abulbprotect2.jpg,RIGHT
1230,lts4_0402I_01_01,549,0,0,1,710,ACRIB18.jpg,ACRIB18.jpg,RIGHT
1231,lts4_0402I_01_01,550,0,0,1,695,22911500.thl.jpg,22911500.thl.jpg,RIGHT
1232,lts4_0402I_01_01,551,0,0,1,632,battery.jpg,battery.jpg,RIGHT
1233,lts4_0402I_01_01,552,0,0,1,548,Acampingstov9.jpg,Acampingstov9.jpg,RIGHT
1234,lts4_0402I_01_01,553,0,0,1,541,1/AREDROSE8.jpg,AREDROSE8.jpg,RIGHT
1235,lts4_0402I_01_01,554,1,1,1,1032,1-9/AREDROSE8.jpg,AREDROSE8.jpg,LEFT
1236,lts4_0402I_01_01,555,0,0,1,720,16/Agoldfishina2.jpg,Agoldfishina2.jpg,RIGHT
1237,lts4_0402I_01_01,556,0,0,1,527,AHEATER3.jpg,AHEATER3.jpg,RIGHT
1238,lts4_0402I_01_01,557,0,0,1,597,AANTJUG.jpg,AANTJUG.jpg,RIGHT
1239,lts4_0402I_01_01,558,0,0,1,629,fireextinguisher.jpg,fireextinguisher.jpg,RIGHT
1240,lts4_0402I_01_01,559,0,0,1,756,8256618.thl.jpg,8256618.thl.jpg,RIGHT
1241,lts4_0402I_01_01,560,0,0,1,827,ABLOODCEA.jpg,ABLOODCEA.jpg,RIGHT
1242,lts4_0402I_01_01,561,512,1,1,615,512-4/Aearth3.jpg,Aearth3.jpg,LEFT
1243,lts4_0402I_01_01,562,0,0,1,798,4/Aammonitefo14.jpg,Aammonitefo14.jpg,LEFT
1244,lts4_0402I_01_01,563,0,0,1,498,26421583.thl.jpg,26421583.thl.jpg,RIGHT
1245,lts4_0402I_01_01,564,0,0,1,548,Agreenplastic.jpg,Agreenplastic.jpg,RIGHT
1246,lts4_0402I_01_01,565,0,0,1,736,Ayoungbobcat.jpg,Ayoungbobcat.jpg,RIGHT
1247,lts4_0402I_01_01,566,4,1,1,609,4-5/Aammonitefo14.jpg,Aammonitefo14.jpg,LEFT
1248,lts4_0402I_01_01,567,0,0,1,557,Atool12.jpg,Atool12.jpg,RIGHT
1249,lts4_0402I_01_01,568,0,0,1,579,ABROKUMBR.jpg,ABROKUMBR.jpg,RIGHT
1250,lts4_0402I_01_01,569,0,0,1,435,AMAPLESYR.jpg,AMAPLESYR.jpg,RIGHT
1251,lts4_0402I_01_01,570,0,0,1,558,A3bday5.jpg,A3bday5.jpg,RIGHT
1252,lts4_0402I_01_01,571,16,1,1,597,16-first/Agoldfishina2.jpg,Agoldfishina2.jpg,LEFT
1253,lts4_0402I_01_01,572,0,0,1,524,stone.jpg,stone.jpg,RIGHT
1254,lts4_0402I_01_01,573,0,0,1,569,ACAMPSTO7.jpg,ACAMPSTO7.jpg,RIGHT
1255,lts4_0402I_01_01,574,0,0,1,594,rollerblades.jpg,rollerblades.jpg,RIGHT
1256,lts4_0402I_01_01,575,512,1,1,559,512-2/AEIFFELTO.jpg,AEIFFELTO.jpg,LEFT
1257,lts4_0402I_01_01,576,0,0,1,511,AFILEFOL4.jpg,AFILEFOL4.jpg,RIGHT
1258,lts4_0402I_01_01,577,0,0,1,477,BeautyNBeast.jpg,BeautyNBeast.jpg,RIGHT
1259,lts4_0402I_01_01,578,64,1,1,564,64-first/Apumpcart2.jpg,Apumpcart2.jpg,LEFT
1260,lts4_0402I_01_01,579,0,0,1,621,ABORKEHOR.jpg,ABORKEHOR.jpg,RIGHT
1261,lts4_0402I_01_01,580,0,0,1,599,ATRIANGL2.jpg,ATRIANGL2.jpg,RIGHT
1262,lts4_0402I_01_01,581,0,0,1,605,AASCDESC.jpg,AASCDESC.jpg,RIGHT
1263,lts4_0402I_01_01,582,4,1,1,454,4-mul/Apumpcart2.jpg,Apumpcart2.jpg,LEFT
1264,lts4_0402I_01_01,583,0,0,1,498,AFRUIT2.jpg,AFRUIT2.jpg,RIGHT
1265,lts4_0402I_01_01,584,0,0,1,527,Atoy17.jpg,Atoy17.jpg,RIGHT
1266,lts4_0402I_01_01,585,0,0,1,776,Alighter12.jpg,Alighter12.jpg,RIGHT
1267,lts4_0402I_01_01,586,0,0,1,497,26437107.thl.jpg,26437107.thl.jpg,RIGHT
1268,lts4_0402I_01_01,587,16,1,1,589,16-mul/Agoldfishina2.jpg,Agoldfishina2.jpg,LEFT
1269,lts4_0402I_01_01,588,0,0,1,540,grenade.jpg,grenade.jpg,RIGHT
1270,lts4_0402I_01_01,589,0,0,1,582,1/26374767.thl.jpg,26374767.thl.jpg,RIGHT
1271,lts4_0402I_01_01,590,1,1,1,1045,1-11/26374767.thl.jpg,26374767.thl.jpg,LEFT
1272,lts4_0402I_01_01,591,0,0,1,486,2/turnip.jpg,turnip.jpg,RIGHT
1273,lts4_0402I_01_01,592,0,0,1,536,darkwador.jpg,darkwador.jpg,RIGHT
1274,lts4_0402I_01_01,593,2,1,1,583,2-8/turnip.jpg,turnip.jpg,LEFT
1275,lts4_0402I_01_01,594,0,0,1,617,celery.jpg,celery.jpg,RIGHT
1276,lts4_0402I_01_01,595,0,0,1,580,32/ABROOCH52.jpg,ABROOCH52.jpg,RIGHT
1277,lts4_0402I_01_01,596,0,0,1,598,Acartofgroce3.jpg,Acartofgroce3.jpg,RIGHT
1278,lts4_0402I_01_01,597,0,0,1,524,AGLASSCON.jpg,AGLASSCON.jpg,RIGHT
1279,lts4_0402I_01_01,598,0,0,1,469,23029830.thl.jpg,23029830.thl.jpg,RIGHT
1280,lts4_0402I_01_01,599,512,1,1,455,512-0/snail.jpg,snail.jpg,RIGHT
1281,lts4_0402I_01_01,600,0,0,1,834,22875384.thl.jpg,22875384.thl.jpg,RIGHT
1282,lts4_0402I_01_01,601,0,0,1,565,26372669.thl.jpg,26372669.thl.jpg,RIGHT
1283,lts4_0402I_01_01,602,256,1,1,766,256-3/AAIRPORTC.jpg,AAIRPORTC.jpg,RIGHT
1284,lts4_0402I_01_01,603,0,0,1,719,ACASTANET.jpg,ACASTANET.jpg,RIGHT
1285,lts4_0402I_01_01,604,0,0,1,714,airhocckytable.jpg,airhocckytable.jpg,RIGHT
1286,lts4_0402I_01_01,605,0,0,1,756,barbwirecoil.jpg,barbwirecoil.jpg,RIGHT
1287,lts4_0402I_01_01,606,0,0,1,538,26439074.thl.jpg,26439074.thl.jpg,RIGHT
1288,lts4_0402I_01_01,607,0,0,1,632,26422507.thl.jpg,26422507.thl.jpg,RIGHT
1289,lts4_0402I_01_01,608,0,0,1,733,26393373.thl.jpg,26393373.thl.jpg,RIGHT
1290,lts4_0402I_01_01,609,0,0,1,615,2/26432899.thl.jpg,26432899.thl.jpg,RIGHT
1291,lts4_0402I_01_01,610,0,0,1,459,AFILMCUTT.jpg,AFILMCUTT.jpg,RIGHT
1292,lts4_0402I_01_01,611,2,1,1,543,2-0/26432899.thl.jpg,26432899.thl.jpg,LEFT
1293,lts4_0402I_01_01,612,0,0,1,615,22923440.thl.jpg,22923440.thl.jpg,RIGHT
1294,lts4_0402I_01_01,613,0,0,1,670,ADECOSPO4.jpg,ADECOSPO4.jpg,RIGHT
1295,lts4_0402I_01_01,614,0,0,1,575,Amonitor10.jpg,Amonitor10.jpg,RIGHT
1296,lts4_0402I_01_01,615,0,0,1,475,16/Agolfbag.jpg,Agolfbag.jpg,RIGHT
1297,lts4_0402I_01_01,616,128,1,1,462,128-4/AAIRGAUGE.jpg,AAIRGAUGE.jpg,RIGHT
1298,lts4_0402I_01_01,617,0,0,1,487,16/ATABLES5.jpg,ATABLES5.jpg,RIGHT
1299,lts4_0402I_01_01,618,0,0,1,610,2/26441591.thl.jpg,26441591.thl.jpg,RIGHT
1300,lts4_0402I_01_01,619,0,0,1,571,AICEAXE2.jpg,AICEAXE2.jpg,RIGHT
1301,lts4_0402I_01_01,620,2,1,1,497,2-2/26441591.thl.jpg,26441591.thl.jpg,LEFT
1302,lts4_0402I_01_01,621,0,0,1,504,AHARPSIC5.jpg,AHARPSIC5.jpg,RIGHT
1303,lts4_0402I_01_01,622,0,0,1,482,2/ASTAR.jpg,ASTAR.jpg,RIGHT
1304,lts4_0402I_01_01,623,0,0,1,484,A_chocolate.jpg,A_chocolate.jpg,RIGHT
1305,lts4_0402I_01_01,624,2,1,1,550,2-10/ASTAR.jpg,ASTAR.jpg,LEFT
1306,lts4_0402I_01_01,625,0,0,1,571,26425370.thl.jpg,26425370.thl.jpg,RIGHT
1307,lts4_0402I_01_01,626,0,0,1,467,Aspoon14.jpg,Aspoon14.jpg,RIGHT
1308,lts4_0402I_01_01,627,32,1,1,511,32-9/ABROOCH52.jpg,ABROOCH52.jpg,LEFT
1309,lts4_0402I_01_01,628,0,0,1,540,1/Afloweredsan3.jpg,Afloweredsan3.jpg,RIGHT
1310,lts4_0402I_01_01,629,1,1,1,572,1-12/Afloweredsan3.jpg,Afloweredsan3.jpg,LEFT
1311,lts4_0402I_01_01,630,0,0,1,467,8/ALOOFA.jpg,ALOOFA.jpg,RIGHT
1312,lts4_0402I_01_01,631,16,1,1,567,16-1/Agolfbag.jpg,Agolfbag.jpg,LEFT
1313,lts4_0402I_01_01,632,0,0,1,582,DSCN6303-sm.jpg,DSCN6303-sm.jpg,RIGHT
1314,lts4_0402I_01_01,633,16,1,1,550,16-first/ATABLES5.jpg,ATABLES5.jpg,LEFT
1315,lts4_0402I_01_01,634,0,0,1,482,2/AELEMENT2.jpg,AELEMENT2.jpg,RIGHT
1316,lts4_0402I_01_01,635,0,0,1,648,Acrib12.jpg,Acrib12.jpg,RIGHT
1317,lts4_0402I_01_01,636,2,1,1,553,2-7/AELEMENT2.jpg,AELEMENT2.jpg,LEFT
1318,lts4_0402I_01_01,637,0,0,1,647,AJEWELBO3.jpg,AJEWELBO3.jpg,RIGHT
1319,lts4_0402I_01_01,638,8,1,1,539,8-first/ALOOFA.jpg,ALOOFA.jpg,LEFT
1320,lts4_0402I_01_01,639,0,0,1,521,1/26437064.thl.jpg,26437064.thl.jpg,RIGHT
1321,lts4_0402I_01_01,640,1,1,1,578,1-3/26437064.thl.jpg,26437064.thl.jpg,LEFT
1322,lts4_0402I_01_01,641,0,0,1,484,makeupfoundation.jpg,makeupfoundation.jpg,RIGHT
1323,lts4_0402I_01_01,642,256,1,1,606,256-1/Atoy21.jpg,Atoy21.jpg,LEFT
1324,lts4_0402I_01_01,643,0,0,1,577,Atoychameleo2.jpg,Atoychameleo2.jpg,RIGHT
1325,lts4_0402I_01_01,644,0,0,1,585,8079080.thl.jpg,8079080.thl.jpg,RIGHT
1326,lts4_0402I_01_01,645,0,0,1,452,APUMPCOOK.jpg,APUMPCOOK.jpg,RIGHT
1327,lts4_0402I_01_01,646,512,1,1,552,512-3/30835757.thl.jpg,30835757.thl.jpg,RIGHT
1328,lts4_0402I_01_01,647,0,0,1,570,22849260.thl.jpg,22849260.thl.jpg,RIGHT
1329,lts4_0402I_01_01,648,0,0,1,717,Abrooch100.jpg,Abrooch100.jpg,RIGHT
1330,lts4_0402I_01_01,649,16,1,1,518,16-mul/ATABLES5.jpg,ATABLES5.jpg,LEFT
1331,lts4_0402I_01_01,650,0,0,1,605,22866972.thl.jpg,22866972.thl.jpg,RIGHT
1332,lts4_0402I_01_01,651,0,0,1,703,ACANOPEN6.jpg,ACANOPEN6.jpg,RIGHT
1333,lts4_0402I_01_01,652,0,0,1,789,Aindustrialve.jpg,Aindustrialve.jpg,RIGHT
1334,lts4_0402I_01_01,653,0,0,1,614,ATROWEL2.jpg,ATROWEL2.jpg,RIGHT
1335,lts4_0402I_01_01,654,16,1,1,564,16-mul/ALOOFA.jpg,ALOOFA.jpg,LEFT
1336,lts4_0402I_01_01,655,0,0,1,531,26427612.thl.jpg,26427612.thl.jpg,RIGHT
1337,lts4_0402I_01_01,656,0,0,1,705,16/26424133.thl.jpg,26424133.thl.jpg,RIGHT
1338,lts4_0402I_01_01,657,0,0,1,932,8/Astonecarvin8.jpg,Astonecarvin8.jpg,RIGHT
1339,lts4_0402I_01_01,658,512,1,1,618,512-5/Ascarf7.jpg,Ascarf7.jpg,LEFT
1340,lts4_0402I_01_01,659,0,0,1,623,origami.jpg,origami.jpg,RIGHT
1341,lts4_0402I_01_01,660,0,0,1,428,2/Aspoonofsug11.jpg,Aspoonofsug11.jpg,RIGHT
1342,lts4_0402I_01_01,661,0,0,1,574,AMINIHAMP.jpg,AMINIHAMP.jpg,RIGHT
1343,lts4_0402I_01_01,662,2,1,1,645,2-11/Aspoonofsug11.jpg,Aspoonofsug11.jpg,LEFT
1344,lts4_0402I_01_01,663,0,0,1,471,Aclamp42.jpg,Aclamp42.jpg,RIGHT
1345,lts4_0402I_01_01,664,0,0,1,601,ATREEHOUS.jpg,ATREEHOUS.jpg,RIGHT
1346,lts4_0402I_01_01,665,8,1,1,519,8-first/Astonecarvin8.jpg,Astonecarvin8.jpg,LEFT
1347,lts4_0402I_01_01,666,0,0,1,628,Aclothespin4.jpg,Aclothespin4.jpg,RIGHT
1348,lts4_0402I_01_01,667,0,0,1,790,Abutterchurn5.jpg,Abutterchurn5.jpg,RIGHT
1349,lts4_0402I_01_01,668,0,0,1,555,Asharktoy.jpg,Asharktoy.jpg,RIGHT
1350,lts4_0402I_01_01,669,4,1,1,493,4-mul/Astonecarvin8.jpg,Astonecarvin8.jpg,LEFT
1351,lts4_0402I_01_01,670,0,0,1,506,ewok.jpg,ewok.jpg,RIGHT
1352,lts4_0402I_01_01,671,0,0,1,472,Ainstrument3.jpg,Ainstrument3.jpg,RIGHT
1353,lts4_0402I_01_01,672,16,1,1,426,16-first/26424133.thl.jpg,26424133.thl.jpg,RIGHT
1354,lts4_0402I_01_01,673,0,0,1,550,Agroupofmole7.jpg,Agroupofmole7.jpg,RIGHT
1355,lts4_0402I_01_01,674,0,0,1,581,ABRAIN3.jpg,ABRAIN3.jpg,RIGHT
1356,lts4_0402I_01_01,675,0,0,1,522,26421575.thl.jpg,26421575.thl.jpg,RIGHT
1357,lts4_0402I_01_01,676,4,1,1,517,4-mul/26424133.thl.jpg,26424133.thl.jpg,LEFT
1358,lts4_0402I_01_01,677,0,0,1,392,Cupcake.jpg,Cupcake.jpg,RIGHT
1359,lts4_0402I_01_01,678,512,1,1,517,512-1/Apilldispens3.jpg,Apilldispens3.jpg,RIGHT
1360,lts4_0402I_01_01,679,0,0,1,586,Abackaccesso4.jpg,Abackaccesso4.jpg,RIGHT
