Subject,subid,sesid,Block,Trial,nBackLength,isRepeat,Responded,respType,RT,logicStr,file,response,rt2,corrResp
AB2 ,AB,1,1,1,0,0,0,LTS0,0,0, AHUNTVES2.jpg ,NOKEY,0,NOKEY
AB2 ,AB,1,1,2,0,0,0,LTS0,0,0, 26431471.thl.jpg ,NOKEY,0,NOKEY
AB2 ,AB,1,1,3,0,0,0,LTS0,0,0, toykeyN.JPG ,NOKEY,0,NOKEY
AB2 ,AB,1,1,4,0,0,0,LTS0,0,0, 26440629.thl.jpg ,NOKEY,0,NOKEY
AB2 ,AB,1,1,5,0,0,0,LTS0,0,0, Arecyclingbox.jpg ,NOKEY,0,NOKEY
AB2 ,AB,1,1,6,0,0,0,LTS0,0,0, AARTIFLE2.jpg ,NOKEY,0,NOKEY
AB2 ,AB,1,1,7,0,0,0,LTS0,0,0, matchbook.jpg ,NOKEY,0,NOKEY
AB2 ,AB,1,1,8,1,1,1,LTS0,870,1, matchbook.jpg ,SPACE,870,SPACE
AB2 ,AB,1,1,9,0,0,0,LTS0,0,0, 23048010.thl.jpg ,NOKEY,0,NOKEY
AB2 ,AB,1,1,10,4,1,1,LTS0,950,4, AARTIFLE2.jpg ,SPACE,950,SPACE
AB2 ,AB,1,1,11,0,0,0,LTS0,0,0, APILLS5.jpg ,NOKEY,0,NOKEY
AB2 ,AB,1,1,12,0,0,0,LTS0,0,0, ABUDDHA18.jpg ,NOKEY,0,NOKEY
AB2 ,AB,1,1,13,2,1,1,LTS0,840,2, APILLS5.jpg ,SPACE,840,SPACE
AB2 ,AB,1,1,14,0,0,0,LTS0,0,0, 8056402.thl.jpg ,NOKEY,0,NOKEY
AB2 ,AB,1,1,15,1,1,1,LTS0,630,1, 8056402.thl.jpg ,SPACE,630,SPACE
AB2 ,AB,1,1,16,0,0,0,LTS0,0,0, 8255981.thl.jpg ,NOKEY,0,NOKEY
AB2 ,AB,1,1,17,0,0,0,LTS0,0,0, AKNEEBRA2.jpg ,NOKEY,0,NOKEY
AB2 ,AB,1,1,18,0,0,0,LTS0,0,0, AGREENPEP.jpg ,NOKEY,0,NOKEY
AB2 ,AB,1,1,19,0,0,0,LTS0,0,0, blueberriespack.jpg ,NOKEY,0,NOKEY
AB2 ,AB,1,1,20,0,0,0,LTS0,0,0, 26437080.thl.jpg ,NOKEY,0,NOKEY
AB2 ,AB,1,1,21,0,0,0,LTS0,0,0, Areceiptmach2.jpg ,NOKEY,0,NOKEY
AB2 ,AB,1,1,22,0,0,0,LTS0,0,0, Acrayonsinabo.jpg ,NOKEY,0,NOKEY
AB2 ,AB,1,1,23,0,0,0,LTS0,0,0, Alighter12.jpg ,NOKEY,0,NOKEY
AB2 ,AB,1,1,24,0,0,0,LTS0,0,0, AMIXBOAR2.jpg ,NOKEY,0,NOKEY
AB2 ,AB,1,1,25,0,0,0,LTS0,0,0, decorativesquash.jpg ,NOKEY,0,NOKEY
AB2 ,AB,1,1,26,0,0,0,LTS0,0,0, Aairtank7.jpg ,NOKEY,0,NOKEY
AB2 ,AB,1,1,27,0,0,0,LTS0,0,0, Aadjustablech.jpg ,NOKEY,0,NOKEY
AB2 ,AB,1,1,28,0,0,0,LTS0,0,0, ADISHLID2.jpg ,NOKEY,0,NOKEY
AB2 ,AB,1,1,29,0,0,0,LTS0,0,0, Arake3.jpg ,NOKEY,0,NOKEY
AB2 ,AB,1,1,30,0,0,0,LTS0,0,0, 26418207.thl.jpg ,NOKEY,0,NOKEY
AB2 ,AB,1,1,31,0,0,0,LTS0,0,0, Areceptacle3.jpg ,NOKEY,0,NOKEY
AB2 ,AB,1,1,32,0,0,0,LTS0,0,0, AMILMARK2.jpg ,NOKEY,0,NOKEY
AB2 ,AB,1,1,33,4,1,1,LTS0,790,4_4-first, Arake3.jpg ,SPACE,790,SPACE
AB2 ,AB,1,1,34,0,0,0,LTS0,0,0, AMIXER1.jpg ,NOKEY,0,NOKEY
AB2 ,AB,1,1,35,0,0,0,LTS0,0,0, AGAUGE.jpg ,NOKEY,0,NOKEY
AB2 ,AB,1,1,36,0,0,0,LTS0,0,0, A25PINCON.jpg ,NOKEY,0,NOKEY
AB2 ,AB,1,1,37,16,1,1,LTS0,870,16, Areceiptmach2.jpg ,SPACE,870,SPACE
AB2 ,AB,1,1,38,0,0,0,LTS0,0,0, ASKIPROP2.jpg ,NOKEY,0,NOKEY
AB2 ,AB,1,1,39,0,0,0,LTS0,0,0, thumb-mermaidfamilly.jpg ,NOKEY,0,NOKEY
AB2 ,AB,1,1,40,0,0,0,LTS0,0,0, 26390325.thl.jpg ,NOKEY,0,NOKEY
AB2 ,AB,1,1,41,0,0,0,LTS0,0,0, A_chocolate.jpg ,NOKEY,0,NOKEY
AB2 ,AB,1,1,42,0,0,0,LTS0,0,0, ALIGHTHO5.jpg ,NOKEY,0,NOKEY
AB2 ,AB,1,1,43,0,0,0,LTS0,0,0, visacard.jpg ,NOKEY,0,NOKEY
AB2 ,AB,1,1,44,0,0,0,LTS0,0,0, babyswig.jpg ,NOKEY,0,NOKEY
AB2 ,AB,1,1,45,0,0,0,LTS0,0,0, Apaintroller2.jpg ,NOKEY,0,NOKEY
AB2 ,AB,1,1,46,4,1,1,LTS0,940,4, ALIGHTHO5.jpg ,SPACE,940,SPACE
AB2 ,AB,1,1,47,0,0,0,LTS0,0,0, Agiftbag20.jpg ,NOKEY,0,NOKEY
AB2 ,AB,1,1,48,0,0,0,LTS0,0,0, 26378596.thl.jpg ,NOKEY,0,NOKEY
AB2 ,AB,1,1,49,16,1,1,LTS0,810,16_16-mul-0, Arake3.jpg ,SPACE,810,SPACE
AB2 ,AB,1,1,50,0,0,0,LTS0,0,0, Aim4ribbo.jpg ,NOKEY,0,NOKEY
AB2 ,AB,1,1,51,0,0,0,LTS0,0,0, 26421575.thl.jpg ,NOKEY,0,NOKEY
AB2 ,AB,1,1,52,0,0,0,LTS0,0,0, AARMYTRUK.jpg ,NOKEY,0,NOKEY
AB2 ,AB,1,1,53,0,0,0,LTS0,0,0, brownie.jpg ,NOKEY,0,NOKEY
AB2 ,AB,1,1,54,0,0,0,LTS0,0,0, Achickendinne.jpg ,NOKEY,0,NOKEY
AB2 ,AB,1,1,55,0,0,0,LTS0,0,0, bobbypins.JPG ,NOKEY,0,NOKEY
AB2 ,AB,1,1,56,0,0,0,LTS0,0,0, ACROQUET2.jpg ,NOKEY,0,NOKEY
AB2 ,AB,1,1,57,4,1,1,LTS0,810,4, brownie.jpg ,SPACE,810,SPACE
AB2 ,AB,1,1,58,0,0,0,LTS0,0,0, Chevypickup.jpg ,NOKEY,0,NOKEY
AB2 ,AB,1,1,59,0,0,0,LTS0,0,0, APOKCHIP4.jpg ,NOKEY,0,NOKEY
AB2 ,AB,1,1,60,0,0,0,LTS0,0,0, AMINIHAMP.jpg ,NOKEY,0,NOKEY
AB2 ,AB,1,1,61,0,0,0,LTS0,0,0, 36407685.thl.jpg ,NOKEY,0,NOKEY
AB2 ,AB,1,1,62,0,0,0,LTS0,0,0, AGUIRA.jpg ,NOKEY,0,NOKEY
AB2 ,AB,1,1,63,0,0,0,LTS0,0,0, makeupfoundation.jpg ,NOKEY,0,NOKEY
AB2 ,AB,1,1,64,0,0,0,LTS0,0,0, AHORSHOE2.jpg ,NOKEY,0,NOKEY
AB2 ,AB,1,1,65,0,0,0,LTS0,0,0, ADEEPFRYS.jpg ,NOKEY,0,NOKEY
AB2 ,AB,1,1,66,0,0,0,LTS0,0,0, Abowlofwonto5.jpg ,NOKEY,0,NOKEY
AB2 ,AB,1,1,67,0,0,0,LTS0,0,0, ACOWCREAM.jpg ,NOKEY,0,NOKEY
AB2 ,AB,1,1,68,0,0,0,LTS0,0,0, 26451168.thl.jpg ,NOKEY,0,NOKEY
AB2 ,AB,1,1,69,0,0,0,LTS0,0,0, schoolbagA.JPG ,NOKEY,0,NOKEY
AB2 ,AB,1,1,70,0,0,0,LTS0,0,0, Atoyseasaw.jpg ,NOKEY,0,NOKEY
AB2 ,AB,1,1,71,0,0,0,LTS0,0,0, AEARING49.jpg ,NOKEY,0,NOKEY
AB2 ,AB,1,1,72,0,0,0,LTS0,0,0, Agraduationh2.jpg ,NOKEY,0,NOKEY
AB2 ,AB,1,1,73,0,0,0,LTS0,0,0, ARAILLIGH.jpg ,NOKEY,0,NOKEY
AB2 ,AB,1,1,74,0,0,0,LTS0,0,0, 8022302.thl.jpg ,NOKEY,0,NOKEY
AB2 ,AB,1,1,75,1,1,1,LTS0,710,1_1-first, 8022302.thl.jpg ,SPACE,710,SPACE
AB2 ,AB,1,1,76,0,0,0,LTS0,0,0, ignitionkey01.jpg ,NOKEY,0,NOKEY
AB2 ,AB,1,1,77,0,0,0,LTS0,0,0, Acardboardpan.jpg ,NOKEY,0,NOKEY
AB2 ,AB,1,1,78,0,0,0,LTS0,0,0, Abloodorange.jpg ,NOKEY,0,NOKEY
AB2 ,AB,1,1,79,0,0,0,LTS0,0,0, Aclock213.jpg ,NOKEY,0,NOKEY
AB2 ,AB,1,1,80,0,0,0,LTS0,0,0, 26428753.thl.jpg ,NOKEY,0,NOKEY
AB2 ,AB,1,1,81,8,1,1,LTS0,820,8_8-first, ARAILLIGH.jpg ,SPACE,820,SPACE
AB2 ,AB,1,1,82,0,0,0,LTS0,0,0, Abrooch104.jpg ,NOKEY,0,NOKEY
AB2 ,AB,1,1,83,2,1,1,LTS0,760,2_2-mul-0, ARAILLIGH.jpg ,SPACE,760,SPACE
AB2 ,AB,1,1,84,0,0,0,LTS0,0,0, Apercussioni3.jpg ,NOKEY,0,NOKEY
AB2 ,AB,1,1,85,0,0,0,LTS0,0,0, ASCREW7.jpg ,NOKEY,0,NOKEY
AB2 ,AB,1,1,86,0,0,0,LTS0,0,0, Azebra8.jpg ,NOKEY,0,NOKEY
AB2 ,AB,1,1,87,0,0,0,LTS0,0,0, Aantiquecigar.jpg ,NOKEY,0,NOKEY
AB2 ,AB,1,1,88,0,0,0,LTS0,0,0, oilbottleolive.jpg ,NOKEY,0,NOKEY
AB2 ,AB,1,1,89,0,0,0,LTS0,0,0, Abuilding116.jpg ,NOKEY,0,NOKEY
AB2 ,AB,1,1,90,0,0,0,LTS0,0,0, Atoiletplung2.jpg ,NOKEY,0,NOKEY
AB2 ,AB,1,1,91,0,0,0,LTS0,0,0, 35313371.thl.jpg ,NOKEY,0,NOKEY
AB2 ,AB,1,1,92,2,1,1,LTS0,840,2_2-first, Atoiletplung2.jpg ,SPACE,840,SPACE
AB2 ,AB,1,1,93,0,0,0,LTS0,0,0, Aantiquepock3.jpg ,NOKEY,0,NOKEY
AB2 ,AB,1,1,94,0,0,0,LTS0,0,0, Aashtray14.jpg ,NOKEY,0,NOKEY
AB2 ,AB,1,1,95,0,0,0,LTS0,0,0, ATOOLS.jpg ,NOKEY,0,NOKEY
AB2 ,AB,1,1,96,0,0,0,LTS0,0,0, 8026084.thl.jpg ,NOKEY,0,NOKEY
AB2 ,AB,1,1,97,0,0,0,LTS0,0,0, ATOOTHBR3.jpg ,NOKEY,0,NOKEY
AB2 ,AB,1,1,98,0,0,0,LTS0,0,0, Amountaingoa2.jpg ,NOKEY,0,NOKEY
AB2 ,AB,1,1,99,0,0,0,LTS0,0,0, dragon.jpg ,NOKEY,0,NOKEY
AB2 ,AB,1,1,100,0,0,0,LTS0,0,0, ACEMPOST.jpg ,NOKEY,0,NOKEY
AB2 ,AB,1,1,101,0,0,0,LTS0,0,0, ABAPITCHS.jpg ,NOKEY,0,NOKEY
AB2 ,AB,1,1,102,1,1,1,LTS0,860,1, ABAPITCHS.jpg ,SPACE,860,SPACE
AB2 ,AB,1,1,103,0,0,0,LTS0,0,0, A100FRAN3.jpg ,NOKEY,0,NOKEY
AB2 ,AB,1,1,104,1,1,1,LTS0,880,1_1-first, A100FRAN3.jpg ,SPACE,880,SPACE
AB2 ,AB,1,1,105,0,0,0,LTS0,0,0, 26437074.thl.jpg ,NOKEY,0,NOKEY
AB2 ,AB,1,1,106,8,1,1,LTS0,780,8, Amountaingoa2.jpg ,SPACE,780,SPACE
AB2 ,AB,1,1,107,0,0,0,LTS0,0,0, AJEWISHTA.jpg ,NOKEY,0,NOKEY
AB2 ,AB,1,1,108,0,0,0,LTS0,0,0, chocolatbox.jpg ,NOKEY,0,NOKEY
AB2 ,AB,1,1,109,0,0,0,LTS0,0,0, ATIMECLO3.jpg ,NOKEY,0,NOKEY
AB2 ,AB,1,1,110,0,0,0,LTS0,0,0, B_orange.jpg ,NOKEY,0,NOKEY
AB2 ,AB,1,1,111,1,1,1,LTS0,680,1, B_orange.jpg ,SPACE,680,SPACE
AB2 ,AB,1,1,112,0,0,0,LTS0,0,0, Aflowerpot15.jpg ,NOKEY,0,NOKEY
AB2 ,AB,1,1,113,0,0,0,LTS0,0,0, Acampingcoffe.jpg ,NOKEY,0,NOKEY
AB2 ,AB,1,1,114,0,0,0,LTS0,0,0, ACOMPAS20.jpg ,NOKEY,0,NOKEY
AB2 ,AB,1,1,115,0,0,0,LTS0,0,0, Afoodproces22.jpg ,NOKEY,0,NOKEY
AB2 ,AB,1,1,116,0,0,0,LTS0,0,0, M15589.jpg ,NOKEY,0,NOKEY
AB2 ,AB,1,1,117,0,0,0,LTS0,0,0, 26429130.thl.jpg ,NOKEY,0,NOKEY
AB2 ,AB,1,1,118,0,0,0,LTS0,0,0, Aacarthatsbe2.jpg ,NOKEY,0,NOKEY
AB2 ,AB,1,1,119,0,0,0,LTS0,0,0, AACGUITA.jpg ,NOKEY,0,NOKEY
AB2 ,AB,1,1,120,4,1,1,LTS0,840,4_4-first, M15589.jpg ,SPACE,840,SPACE
AB2 ,AB,1,1,121,0,0,0,LTS0,0,0, ASHRIMP3.jpg ,NOKEY,0,NOKEY
AB2 ,AB,1,1,122,4,1,1,LTS0,1050,4, Aacarthatsbe2.jpg ,SPACE,1050,SPACE
AB2 ,AB,1,1,123,0,0,0,LTS0,0,0, 36407647.thl.jpg ,NOKEY,0,NOKEY
AB2 ,AB,1,1,124,32,1,1,LTS0,790,32_32-mul-0, Atoiletplung2.jpg ,SPACE,790,SPACE
AB2 ,AB,1,1,125,0,0,0,LTS0,0,0, ATRACTWH6.jpg ,NOKEY,0,NOKEY
AB2 ,AB,1,1,126,0,0,0,LTS0,0,0, 26433942.thl.jpg ,NOKEY,0,NOKEY
AB2 ,AB,1,1,127,0,0,0,LTS0,0,0, redonion.jpg ,NOKEY,0,NOKEY
AB2 ,AB,1,1,128,0,0,0,LTS0,0,0, moto.jpg ,NOKEY,0,NOKEY
AB2 ,AB,1,1,129,0,0,0,LTS0,0,0, Aflatwoodenba.jpg ,NOKEY,0,NOKEY
AB2 ,AB,1,1,130,0,0,0,LTS0,0,0, peanutbutter.jpg ,NOKEY,0,NOKEY
AB2 ,AB,1,1,131,8,1,1,LTS0,830,8, 36407647.thl.jpg ,SPACE,830,SPACE
AB2 ,AB,1,1,132,0,0,0,LTS0,0,0, AREDBOX17.jpg ,NOKEY,0,NOKEY
AB2 ,AB,1,1,133,0,0,0,LTS0,0,0, AANTRAD24.jpg ,NOKEY,0,NOKEY
AB2 ,AB,1,1,134,0,0,0,LTS0,0,0, AFOODBLEN.jpg ,NOKEY,0,NOKEY
AB2 ,AB,1,1,135,0,0,0,LTS0,0,0, Ahandheldmir3.jpg ,NOKEY,0,NOKEY
AB2 ,AB,1,1,136,0,0,0,LTS0,0,0, reesepeanut.jpg ,NOKEY,0,NOKEY
AB2 ,AB,1,1,137,0,0,0,LTS0,0,0, APOTGOLD2.jpg ,NOKEY,0,NOKEY
AB2 ,AB,1,1,138,8,1,1,LTS0,960,8, peanutbutter.jpg ,SPACE,960,SPACE
AB2 ,AB,1,1,139,0,0,0,LTS0,0,0, Anetworkplug4.jpg ,NOKEY,0,NOKEY
AB2 ,AB,1,1,140,0,0,0,LTS0,0,0, breadboxA.JPG ,NOKEY,0,NOKEY
AB2 ,AB,1,1,141,0,0,0,LTS0,0,0, 23057742.thl.jpg ,NOKEY,0,NOKEY
AB2 ,AB,1,1,142,0,0,0,LTS0,0,0, laptopA.JPG ,NOKEY,0,NOKEY
AB2 ,AB,1,1,143,0,0,0,LTS0,0,0, Aasianbuildin.jpg ,NOKEY,0,NOKEY
AB2 ,AB,1,1,144,0,0,0,LTS0,0,0, mriscanner.jpg ,NOKEY,0,NOKEY
AB2 ,AB,1,1,145,0,0,0,LTS0,0,0, AGRATER.jpg ,NOKEY,0,NOKEY
AB2 ,AB,1,1,146,0,0,0,LTS0,0,0, 10052787.thm.jpg ,NOKEY,0,NOKEY
AB2 ,AB,1,1,147,0,0,0,LTS0,0,0, Atoyhomeoffi4.jpg ,NOKEY,0,NOKEY
AB2 ,AB,1,1,148,1,1,1,LTS0,930,1, Atoyhomeoffi4.jpg ,SPACE,930,SPACE
AB2 ,AB,1,1,149,0,0,0,LTS0,0,0, Abluebabybug4.jpg ,NOKEY,0,NOKEY
AB2 ,AB,1,1,150,16,1,1,LTS0,850,16, AFOODBLEN.jpg ,SPACE,850,SPACE
AB2 ,AB,1,1,151,0,0,0,LTS0,0,0, 26684634.thl.jpg ,NOKEY,0,NOKEY
AB2 ,AB,1,1,152,0,0,0,LTS0,0,0, pinballmachine.jpg ,NOKEY,0,NOKEY
AB2 ,AB,1,1,153,4,1,1,LTS0,990,4, Abluebabybug4.jpg ,SPACE,990,SPACE
AB2 ,AB,1,1,154,0,0,0,LTS0,0,0, Acougar.jpg ,NOKEY,0,NOKEY
AB2 ,AB,1,1,155,0,0,0,LTS0,0,0, AHYPONEE3.jpg ,NOKEY,0,NOKEY
AB2 ,AB,1,1,156,0,0,0,LTS0,0,0, excedrin.jpg ,NOKEY,0,NOKEY
AB2 ,AB,1,1,157,0,0,0,LTS0,0,0, Athreeholepu6.jpg ,NOKEY,0,NOKEY
AB2 ,AB,1,1,158,0,0,0,LTS0,0,0, A52ZX.jpg ,NOKEY,0,NOKEY
AB2 ,AB,1,1,159,0,0,0,LTS0,0,0, ASEASH8.jpg ,NOKEY,0,NOKEY
AB2 ,AB,1,1,160,0,0,0,LTS0,0,0, 22875384.thl.jpg ,NOKEY,0,NOKEY
AB2 ,AB,1,1,161,0,0,0,LTS0,0,0, 26441750.thl.jpg ,NOKEY,0,NOKEY
AB2 ,AB,1,1,162,0,0,0,LTS0,0,0, Apotboilinge2.jpg ,NOKEY,0,NOKEY
AB2 ,AB,1,1,163,0,0,0,LTS0,0,0, AANTLION2.jpg ,NOKEY,0,NOKEY
AB2 ,AB,1,1,164,0,0,0,LTS0,0,0, ASUSHI9.jpg ,NOKEY,0,NOKEY
AB2 ,AB,1,1,165,2,1,1,LTS0,830,2, AANTLION2.jpg ,SPACE,830,SPACE
AB2 ,AB,1,1,166,0,0,0,LTS0,0,0, Ateacherscert.jpg ,NOKEY,0,NOKEY
AB2 ,AB,1,1,167,128,1,1,LTS0,930,128, thumb-mermaidfamilly.jpg ,SPACE,930,SPACE
AB2 ,AB,1,1,168,0,0,0,LTS0,0,0, Atoy35.jpg ,NOKEY,0,NOKEY
AB2 ,AB,1,1,169,0,0,0,LTS0,0,0, Achildtoy3.jpg ,NOKEY,0,NOKEY
AB2 ,AB,1,1,170,0,0,0,LTS0,0,0, 23051010.thl.jpg ,NOKEY,0,NOKEY
AB2 ,AB,1,1,171,0,0,0,LTS0,0,0, 26374787.thl.jpg ,NOKEY,0,NOKEY
AB2 ,AB,1,1,172,0,0,0,LTS0,0,0, Apedestal3.jpg ,NOKEY,0,NOKEY
AB2 ,AB,1,1,173,0,0,0,LTS0,0,0, ALITTERSC.jpg ,NOKEY,0,NOKEY
AB2 ,AB,1,1,174,0,0,0,LTS0,0,0, AANTHAT2.jpg ,NOKEY,0,NOKEY
AB2 ,AB,1,1,175,0,0,0,LTS0,0,0, 22887480.thl.jpg ,NOKEY,0,NOKEY
AB2 ,AB,1,1,176,0,0,0,LTS0,0,0, ADIRECSI3.jpg ,NOKEY,0,NOKEY
AB2 ,AB,1,1,177,0,0,0,LTS0,0,0, 22827408.thl.jpg ,NOKEY,0,NOKEY
AB2 ,AB,1,1,178,0,0,0,LTS0,0,0, Acanoe19.jpg ,NOKEY,0,NOKEY
AB2 ,AB,1,1,179,0,0,0,LTS0,0,0, Aboxofnotepa4.jpg ,NOKEY,0,NOKEY
AB2 ,AB,1,1,180,0,0,0,LTS0,0,0, Ahandbag55.jpg ,NOKEY,0,NOKEY
AB2 ,AB,1,1,181,0,0,0,LTS0,0,0, ALADLE5.jpg ,NOKEY,0,NOKEY
AB2 ,AB,1,1,182,0,0,0,LTS0,0,0, Apants8.jpg ,NOKEY,0,NOKEY
AB2 ,AB,1,1,183,0,0,0,LTS0,0,0, Aschogirl.jpg ,NOKEY,0,NOKEY
AB2 ,AB,1,1,184,64,1,1,LTS0,760,64_64-mul-0, M15589.jpg ,SPACE,760,SPACE
AB2 ,AB,1,1,185,0,0,0,LTS0,0,0, Abootbinding.jpg ,NOKEY,0,NOKEY
AB2 ,AB,1,1,186,0,0,0,LTS0,0,0, ABARBCHA3.jpg ,NOKEY,0,NOKEY
AB2 ,AB,1,1,187,0,0,0,LTS0,0,0, Acabinet21.jpg ,NOKEY,0,NOKEY
AB2 ,AB,1,1,188,0,0,0,LTS0,0,0, Asaturn.jpg ,NOKEY,0,NOKEY
AB2 ,AB,1,1,189,0,0,0,LTS0,0,0, labyrinthe.jpg ,NOKEY,0,NOKEY
AB2 ,AB,1,1,190,0,0,0,LTS0,0,0, Abeetle10.jpg ,NOKEY,0,NOKEY
AB2 ,AB,1,1,191,0,0,0,LTS0,0,0, firetrucktoy1.jpg ,NOKEY,0,NOKEY
AB2 ,AB,1,1,192,0,0,0,LTS0,0,0, ABEARIN12.jpg ,NOKEY,0,NOKEY
AB2 ,AB,1,1,193,0,0,0,LTS0,0,0, footballhelmet.jpg ,NOKEY,0,NOKEY
AB2 ,AB,1,1,194,0,0,0,LTS0,0,0, Aglass43.jpg ,NOKEY,0,NOKEY
AB2 ,AB,1,1,195,0,0,0,LTS0,0,0, Ateacupplate5.jpg ,NOKEY,0,NOKEY
AB2 ,AB,1,1,196,0,0,0,LTS0,0,0, 26369923.thl.jpg ,NOKEY,0,NOKEY
AB2 ,AB,1,1,197,0,0,0,LTS0,0,0, Abrownbagwith.jpg ,NOKEY,0,NOKEY
AB2 ,AB,1,1,198,0,0,0,LTS0,0,0, 22852032.thl.jpg ,NOKEY,0,NOKEY
AB2 ,AB,1,1,199,0,0,0,LTS0,0,0, ACARDFRA2.jpg ,NOKEY,0,NOKEY
AB2 ,AB,1,1,200,0,0,0,LTS0,0,0, Achair618.jpg ,NOKEY,0,NOKEY
AB2 ,AB,1,1,201,0,0,0,LTS0,0,0, ASTREESW2.jpg ,NOKEY,0,NOKEY
AB2 ,AB,1,1,202,128,1,1,LTS0,1180,128_127-mul-0, 8022302.thl.jpg ,SPACE,1180,SPACE
AB2 ,AB,1,1,203,0,0,0,LTS0,0,0, 26374158.thl.jpg ,NOKEY,0,NOKEY
AB2 ,AB,1,1,204,0,0,0,LTS0,0,0, Acarrot.jpg ,NOKEY,0,NOKEY
AB2 ,AB,1,1,205,0,0,0,LTS0,0,0, 26423786.thl.jpg ,NOKEY,0,NOKEY
AB2 ,AB,1,1,206,0,0,0,LTS0,0,0, AMOUSWHEE.jpg ,NOKEY,0,NOKEY
AB2 ,AB,1,1,207,0,0,0,LTS0,0,0, 26373362.thl.jpg ,NOKEY,0,NOKEY
AB2 ,AB,1,1,208,0,0,0,LTS0,0,0, Afusehousing.jpg ,NOKEY,0,NOKEY
AB2 ,AB,1,1,209,4,1,1,LTS0,1010,4, 26423786.thl.jpg ,SPACE,1010,SPACE
AB2 ,AB,1,1,210,0,0,0,LTS0,0,0, Atwowayradio2.jpg ,NOKEY,0,NOKEY
AB2 ,AB,1,1,211,0,0,0,LTS0,0,0, 26442809.thl.jpg ,NOKEY,0,NOKEY
AB2 ,AB,1,1,212,0,0,0,LTS0,0,0, ASTAMPS.jpg ,NOKEY,0,NOKEY
AB2 ,AB,1,1,213,0,0,0,LTS0,0,0, ABALALAI3.jpg ,NOKEY,0,NOKEY
AB2 ,AB,1,1,214,0,0,0,LTS0,0,0, biscuit.jpg ,NOKEY,0,NOKEY
AB2 ,AB,1,1,215,0,0,0,LTS0,0,0, 855874.jpg ,NOKEY,0,NOKEY
AB2 ,AB,1,1,216,0,0,0,LTS0,0,0, Aspinningwhe2.jpg ,NOKEY,0,NOKEY
AB2 ,AB,1,1,217,1,1,1,LTS0,920,1, Aspinningwhe2.jpg ,SPACE,920,SPACE
AB2 ,AB,1,1,218,0,0,0,LTS0,0,0, ASALAMI.jpg ,NOKEY,0,NOKEY
AB2 ,AB,1,1,219,0,0,0,LTS0,0,0, scannerA.JPG ,NOKEY,0,NOKEY
AB2 ,AB,1,1,220,0,0,0,LTS0,0,0, Aplastictestt.jpg ,NOKEY,0,NOKEY
AB2 ,AB,1,1,221,0,0,0,LTS0,0,0, Aclimbersicep.jpg ,NOKEY,0,NOKEY
AB2 ,AB,1,1,222,0,0,0,LTS0,0,0, Arooster15.jpg ,NOKEY,0,NOKEY
AB2 ,AB,1,1,223,0,0,0,LTS0,0,0, ATOWELRA3.jpg ,NOKEY,0,NOKEY
AB2 ,AB,1,1,224,0,0,0,LTS0,0,0, strawberrytart.jpg ,NOKEY,0,NOKEY
AB2 ,AB,1,1,225,0,0,0,LTS0,0,0, APIPEST18.jpg ,NOKEY,0,NOKEY
AB2 ,AB,1,1,226,0,0,0,LTS0,0,0, AAEROBENC.jpg ,NOKEY,0,NOKEY
AB2 ,AB,1,1,227,0,0,0,LTS0,0,0, Aringclamp2.jpg ,NOKEY,0,NOKEY
AB2 ,AB,1,1,228,0,0,0,LTS0,0,0, leek.jpg ,NOKEY,0,NOKEY
AB2 ,AB,1,1,229,8,1,1,LTS0,1000,8_8-first, Aclimbersicep.jpg ,SPACE,1000,SPACE
AB2 ,AB,1,1,230,0,0,0,LTS0,0,0, Afeatherdust2.jpg ,NOKEY,0,NOKEY
AB2 ,AB,1,1,231,0,0,0,LTS0,0,0, AWEDCOU19.jpg ,NOKEY,0,NOKEY
AB2 ,AB,1,1,232,0,0,0,LTS0,0,0, ASPOONS2.jpg ,NOKEY,0,NOKEY
AB2 ,AB,1,1,233,0,0,0,LTS0,0,0, retainertheeth.jpg ,NOKEY,0,NOKEY
AB2 ,AB,1,1,234,0,0,0,LTS0,0,0, Apackage3.jpg ,NOKEY,0,NOKEY
AB2 ,AB,1,1,235,1,1,1,LTS0,910,1, Apackage3.jpg ,SPACE,910,SPACE
AB2 ,AB,1,1,236,0,0,0,LTS0,0,0, ARELSCU49.jpg ,NOKEY,0,NOKEY
AB2 ,AB,1,1,237,0,0,0,LTS0,0,0, ASHIRTSK2.jpg ,NOKEY,0,NOKEY
AB2 ,AB,1,1,238,0,0,0,LTS0,0,0, Agourd8.jpg ,NOKEY,0,NOKEY
AB2 ,AB,1,1,239,0,0,0,LTS0,0,0, AOVEN.jpg ,NOKEY,0,NOKEY
AB2 ,AB,1,1,240,32,1,1,LTS0,990,32, Afusehousing.jpg ,SPACE,990,SPACE
AB2 ,AB,1,1,241,0,0,0,LTS0,0,0, DSCN6303-sm.jpg ,NOKEY,0,NOKEY
AB2 ,AB,1,1,242,0,0,0,LTS0,0,0, playjukebox.jpg ,NOKEY,0,NOKEY
AB2 ,AB,1,1,243,0,0,0,LTS0,0,0, 26428540.thl.jpg ,NOKEY,0,NOKEY
AB2 ,AB,1,1,244,0,0,0,LTS0,0,0, Agnu.jpg ,NOKEY,0,NOKEY
AB2 ,AB,1,1,245,0,0,0,LTS0,0,0, AANTICAME.jpg ,NOKEY,0,NOKEY
AB2 ,AB,1,1,246,0,0,0,LTS0,0,0, 26467443.thl.jpg ,NOKEY,0,NOKEY
AB2 ,AB,1,1,247,0,0,0,LTS0,0,0, ABIKEHEL4.jpg ,NOKEY,0,NOKEY
AB2 ,AB,1,1,248,2,1,1,LTS0,990,2, 26467443.thl.jpg ,SPACE,990,SPACE
AB2 ,AB,1,1,249,0,0,0,LTS0,0,0, Adog122.jpg ,NOKEY,0,NOKEY
AB2 ,AB,1,1,250,0,0,0,LTS0,0,0, handshakeN.JPG ,NOKEY,0,NOKEY
AB2 ,AB,1,1,251,0,0,0,LTS0,0,0, AWINTGLO3.jpg ,NOKEY,0,NOKEY
AB2 ,AB,1,1,252,0,0,0,LTS0,0,0, Aflamingo4.jpg ,NOKEY,0,NOKEY
AB2 ,AB,1,1,253,0,0,0,LTS0,0,0, Akiwifruit6.jpg ,NOKEY,0,NOKEY
AB2 ,AB,1,1,254,0,0,0,LTS0,0,0, Aancientbuild.jpg ,NOKEY,0,NOKEY
AB2 ,AB,1,1,255,2,1,1,LTS0,1000,2, Akiwifruit6.jpg ,SPACE,1000,SPACE
AB2 ,AB,1,1,256,0,0,0,LTS0,0,0, ASKELETO4.jpg ,NOKEY,0,NOKEY
AB2 ,AB,1,1,257,32,1,1,LTS0,1260,32, APIPEST18.jpg ,SPACE,1260,SPACE
AB2 ,AB,1,1,258,0,0,0,LTS0,0,0, AWASHSIGN.jpg ,NOKEY,0,NOKEY
AB2 ,AB,1,1,259,0,0,0,LTS0,0,0, acquarium.jpg ,NOKEY,0,NOKEY
AB2 ,AB,1,1,260,0,0,0,LTS0,0,0, Aantelopesku5.jpg ,NOKEY,0,NOKEY
AB2 ,AB,1,1,261,32,1,1,LTS0,850,32_32-mul-0, Aclimbersicep.jpg ,SPACE,850,SPACE
AB2 ,AB,1,1,262,0,0,0,LTS0,0,0, Adigitalcamer.jpg ,NOKEY,0,NOKEY
AB2 ,AB,1,1,263,0,0,0,LTS0,0,0, 26421536.thl.jpg ,NOKEY,0,NOKEY
AB2 ,AB,1,1,264,32,1,1,LTS0,970,32, ASPOONS2.jpg ,SPACE,970,SPACE
AB2 ,AB,1,1,265,0,0,0,LTS0,0,0, ARUSSDO13.jpg ,NOKEY,0,NOKEY
AB2 ,AB,1,1,266,0,0,0,LTS0,0,0, Awhitcb10.jpg ,NOKEY,0,NOKEY
AB2 ,AB,1,1,267,0,0,0,LTS0,0,0, ACANDLE30.jpg ,NOKEY,0,NOKEY
AB2 ,AB,1,1,268,0,0,0,LTS0,0,0, Ajesusstatue2.jpg ,NOKEY,0,NOKEY
AB2 ,AB,1,1,269,0,0,0,LTS0,0,0, AARMCHA25.jpg ,NOKEY,0,NOKEY
AB2 ,AB,1,1,270,0,0,0,LTS0,0,0, AGLASSFL4.jpg ,NOKEY,0,NOKEY
AB2 ,AB,1,1,271,0,0,0,LTS0,0,0, ACOCONUT2.jpg ,NOKEY,0,NOKEY
AB2 ,AB,1,1,272,16,1,1,LTS0,950,16, ASKELETO4.jpg ,SPACE,950,SPACE
AB2 ,AB,1,1,273,0,0,0,LTS0,0,0, 26384637.thl.jpg ,NOKEY,0,NOKEY
AB2 ,AB,1,1,274,0,0,0,LTS0,0,0, Agarbagebag.jpg ,NOKEY,0,NOKEY
AB2 ,AB,1,1,275,0,0,0,LTS0,0,0, dftslpi.jpg ,NOKEY,0,NOKEY
AB2 ,AB,1,1,276,0,0,0,LTS0,0,0, 8258279.thl.jpg ,NOKEY,0,NOKEY
AB2 ,AB,1,1,277,0,0,0,LTS0,0,0, 36407726.thl.jpg ,NOKEY,0,NOKEY
AB2 ,AB,1,1,278,0,0,0,LTS0,0,0, ALAB21.jpg ,NOKEY,0,NOKEY
AB2 ,AB,1,1,279,0,0,0,LTS0,0,0, AFIREPANT.jpg ,NOKEY,0,NOKEY
AB2 ,AB,1,1,280,0,0,0,LTS0,0,0, Asaxophone.jpg ,NOKEY,0,NOKEY
AB2 ,AB,1,1,281,0,0,0,LTS0,0,0, Abooties4.jpg ,NOKEY,0,NOKEY
AB2 ,AB,1,1,282,0,0,0,LTS0,0,0, Aspoon14.jpg ,NOKEY,0,NOKEY
AB2 ,AB,1,1,283,0,0,0,LTS0,0,0, ABRANCHES.jpg ,NOKEY,0,NOKEY
AB2 ,AB,1,1,284,0,0,0,LTS0,0,0, snail.jpg ,NOKEY,0,NOKEY
AB2 ,AB,1,1,285,0,0,0,LTS0,0,0, AMUSIHORN.jpg ,NOKEY,0,NOKEY
AB2 ,AB,1,1,286,0,0,0,LTS0,0,0, ATOOL9.jpg ,NOKEY,0,NOKEY
AB2 ,AB,1,1,287,0,0,0,LTS0,0,0, AOLDLIFE3.jpg ,NOKEY,0,NOKEY
AB2 ,AB,1,1,288,0,0,0,LTS0,0,0, AWATEHOSE.jpg ,NOKEY,0,NOKEY
AB2 ,AB,1,1,289,0,0,0,LTS0,0,0, 8252065.thl.jpg ,NOKEY,0,NOKEY
AB2 ,AB,1,2,290,1,1,1,LTS0,930,00-across0, 8252065.thl.jpg ,SPACE,930,SPACE
AB2 ,AB,1,2,291,0,0,0,LTS0,0,0, AHONEYJA2.jpg ,NOKEY,0,NOKEY
AB2 ,AB,1,2,292,0,0,0,LTS0,0,0, 26425370.thl.jpg ,NOKEY,0,NOKEY
AB2 ,AB,1,2,293,0,0,0,LTS0,0,0, Akeg6.jpg ,NOKEY,0,NOKEY
AB2 ,AB,1,2,294,0,0,0,LTS0,0,0, A1OCLOC2.jpg ,NOKEY,0,NOKEY
AB2 ,AB,1,2,295,0,0,0,LTS0,0,0, outdoorheater.jpg ,NOKEY,0,NOKEY
AB2 ,AB,1,2,296,0,0,0,LTS0,0,0, ALEGCAST3.jpg ,NOKEY,0,NOKEY
AB2 ,AB,1,2,297,2,1,1,LTS0,1200,2_2-first, outdoorheater.jpg ,SPACE,1200,SPACE
AB2 ,AB,1,2,298,0,0,0,LTS0,0,0, Avicegriptool.jpg ,NOKEY,0,NOKEY
AB2 ,AB,1,2,299,0,0,0,LTS0,0,0, ADANGEAR5.jpg ,NOKEY,0,NOKEY
AB2 ,AB,1,2,300,0,0,0,LTS0,0,0, 22848828.thl.jpg ,NOKEY,0,NOKEY
AB2 ,AB,1,2,301,0,0,0,LTS0,0,0, AWEDCAK15.jpg ,NOKEY,0,NOKEY
AB2 ,AB,1,2,302,0,0,0,LTS0,0,0, 26390189.thl.jpg ,NOKEY,0,NOKEY
AB2 ,AB,1,2,303,0,0,0,LTS0,0,0, gingerbreadcookie.jpg ,NOKEY,0,NOKEY
AB2 ,AB,1,2,304,0,0,0,LTS0,0,0, igloo.jpg ,NOKEY,0,NOKEY
AB2 ,AB,1,2,305,32,1,1,LTS0,1490,00-across0, 26384637.thl.jpg ,SPACE,1490,SPACE
AB2 ,AB,1,2,306,0,0,0,LTS0,0,0, 26554952.thl.jpg ,NOKEY,0,NOKEY
AB2 ,AB,1,2,307,0,0,0,LTS0,0,0, AHIBACHI.jpg ,NOKEY,0,NOKEY
AB2 ,AB,1,2,308,0,0,0,LTS0,0,0, AHEADSET.jpg ,NOKEY,0,NOKEY
AB2 ,AB,1,2,309,0,0,0,LTS0,0,0, Amixer29.jpg ,NOKEY,0,NOKEY
AB2 ,AB,1,2,310,0,0,0,LTS0,0,0, AASPHEQUA.jpg ,NOKEY,0,NOKEY
AB2 ,AB,1,2,311,0,0,0,LTS0,0,0, 26379647.thl.jpg ,NOKEY,0,NOKEY
AB2 ,AB,1,2,312,0,0,0,LTS0,0,0, AAIRBALL8.jpg ,NOKEY,0,NOKEY
AB2 ,AB,1,2,313,0,0,0,LTS0,0,0, 26379011.thl.jpg ,NOKEY,0,NOKEY
AB2 ,AB,1,2,314,0,0,0,LTS0,0,0, Acableandacce.jpg ,NOKEY,0,NOKEY
AB2 ,AB,1,2,316,0,0,0,LTS0,0,0, AASPHALT.jpg ,NOKEY,0,NOKEY
AB2 ,AB,1,2,317,0,0,0,LTS0,0,0, 26431734.thl.jpg ,NOKEY,0,NOKEY
AB2 ,AB,1,2,318,0,0,0,LTS0,0,0, Acork6.jpg ,NOKEY,0,NOKEY
AB2 ,AB,1,2,319,0,0,0,LTS0,0,0, 26688546.thl.jpg ,NOKEY,0,NOKEY
AB2 ,AB,1,2,320,0,0,0,LTS0,0,0, AANTSTOV6.jpg ,NOKEY,0,NOKEY
AB2 ,AB,1,2,321,0,0,0,LTS0,0,0, 22921112.thl.jpg ,NOKEY,0,NOKEY
AB2 ,AB,1,2,322,0,0,0,LTS0,0,0, AFIREPUTE.jpg ,NOKEY,0,NOKEY
AB2 ,AB,1,2,323,0,0,0,LTS0,0,0, ACOUNTING.jpg ,NOKEY,0,NOKEY
AB2 ,AB,1,2,324,1,1,1,LTS0,910,1, ACOUNTING.jpg ,SPACE,910,SPACE
AB2 ,AB,1,2,325,0,0,0,LTS0,0,0, Acardinal2.jpg ,NOKEY,0,NOKEY
AB2 ,AB,1,2,326,0,0,0,LTS0,0,0, 26391514.thl.jpg ,NOKEY,0,NOKEY
AB2 ,AB,1,2,327,32,1,1,LTS0,950,32_30-mul-0, outdoorheater.jpg ,SPACE,950,SPACE
AB2 ,AB,1,2,328,0,0,0,LTS0,0,0, monalisa.jpg ,NOKEY,0,NOKEY
AB2 ,AB,1,2,329,0,0,0,LTS0,0,0, canopy.jpg ,NOKEY,0,NOKEY
AB2 ,AB,1,2,330,0,0,0,LTS0,0,0, supersmilefloss.jpg ,NOKEY,0,NOKEY
AB2 ,AB,1,2,331,0,0,0,LTS0,0,0, butterflycross-stitch.jpg ,NOKEY,0,NOKEY
AB2 ,AB,1,2,332,0,0,0,LTS0,0,0, Apig5.jpg ,NOKEY,0,NOKEY
AB2 ,AB,1,2,333,0,0,0,LTS0,0,0, AELECSAW.jpg ,NOKEY,0,NOKEY
AB2 ,AB,1,2,334,0,0,0,LTS0,0,0, Aflower136.jpg ,NOKEY,0,NOKEY
AB2 ,AB,1,2,335,0,0,0,LTS0,0,0, butter03.jpg ,NOKEY,0,NOKEY
AB2 ,AB,1,2,336,0,0,0,LTS0,0,0, ABROCHETT.jpg ,NOKEY,0,NOKEY
AB2 ,AB,1,2,337,0,0,0,LTS0,0,0, 10053101.thm.jpg ,NOKEY,0,NOKEY
AB2 ,AB,1,2,338,0,0,0,LTS0,0,0, buffalowings.jpg ,NOKEY,0,NOKEY
AB2 ,AB,1,2,339,0,0,0,LTS0,0,0, AMECHHAN3.jpg ,NOKEY,0,NOKEY
AB2 ,AB,1,2,340,0,0,0,LTS0,0,0, ATISSUE.jpg ,NOKEY,0,NOKEY
AB2 ,AB,1,2,341,0,0,0,LTS0,0,0, for28524.jpg ,NOKEY,0,NOKEY
AB2 ,AB,1,2,342,0,0,0,LTS0,0,0, ABOX8.jpg ,NOKEY,0,NOKEY
AB2 ,AB,1,2,343,2,1,1,LTS0,910,2_2-first, for28524.jpg ,SPACE,910,SPACE
AB2 ,AB,1,2,344,0,0,0,LTS0,0,0, Aegyptianst20.jpg ,NOKEY,0,NOKEY
AB2 ,AB,1,2,345,0,0,0,LTS0,0,0, AAFRICIN2.jpg ,NOKEY,0,NOKEY
AB2 ,AB,1,2,346,0,0,0,LTS0,0,0, Ashoeform2.jpg ,NOKEY,0,NOKEY
AB2 ,AB,1,2,347,0,0,0,LTS0,0,0, 26373068.thl.jpg ,NOKEY,0,NOKEY
AB2 ,AB,1,2,348,8,1,1,LTS0,2520,8_8-first, ATISSUE.jpg ,SPACE,2520,SPACE
AB2 ,AB,1,2,349,0,0,0,LTS0,0,0, A70ssunglass3.jpg ,NOKEY,0,NOKEY
AB2 ,AB,1,2,350,0,0,0,LTS0,0,0, Achocolateice.jpg ,NOKEY,0,NOKEY
AB2 ,AB,1,2,351,0,0,0,LTS0,0,0, 26389125.thl.jpg ,NOKEY,0,NOKEY
AB2 ,AB,1,2,352,0,0,0,LTS0,0,0, AOUTHOUSE.jpg ,NOKEY,0,NOKEY
AB2 ,AB,1,2,353,0,0,0,LTS0,0,0, Abarn4.jpg ,NOKEY,0,NOKEY
AB2 ,AB,1,2,354,0,0,0,LTS0,0,0, Aspraybottle5.jpg ,NOKEY,0,NOKEY
AB2 ,AB,1,2,355,0,0,0,LTS0,0,0, AARTICHO1.jpg ,NOKEY,0,NOKEY
AB2 ,AB,1,2,356,0,0,0,LTS0,0,0, ALAZQUART.jpg ,NOKEY,0,NOKEY
AB2 ,AB,1,2,357,0,0,0,LTS0,0,0, Alighthouse6.jpg ,NOKEY,0,NOKEY
AB2 ,AB,1,2,358,0,0,0,LTS0,0,0, AEGGHOLDE.jpg ,NOKEY,0,NOKEY
AB2 ,AB,1,2,359,0,0,0,LTS0,0,0, Acamelsculpt2.jpg ,NOKEY,0,NOKEY
AB2 ,AB,1,2,360,0,0,1,LTS0,1870,0, Ascrewmount.jpg ,SPACE,1870,NOKEY
AB2 ,AB,1,2,361,0,0,0,LTS0,0,0, 26427983.thl.jpg ,NOKEY,0,NOKEY
AB2 ,AB,1,2,362,0,0,0,LTS0,0,0, ABOWLCARV.jpg ,NOKEY,0,NOKEY
AB2 ,AB,1,2,363,0,0,0,LTS0,0,0, Atropicalpine.jpg ,NOKEY,0,NOKEY
AB2 ,AB,1,2,364,0,0,0,LTS0,0,0, ABLUBLOTT.jpg ,NOKEY,0,NOKEY
AB2 ,AB,1,2,365,1,1,1,LTS0,970,1_1-first, ABLUBLOTT.jpg ,SPACE,970,SPACE
AB2 ,AB,1,2,366,0,0,0,LTS0,0,0, APETROL2.jpg ,NOKEY,0,NOKEY
AB2 ,AB,1,2,367,0,0,0,LTS0,0,0, Awoodenegg.jpg ,NOKEY,0,NOKEY
AB2 ,AB,1,2,368,0,0,0,LTS0,0,0, piece.jpg ,NOKEY,0,NOKEY
AB2 ,AB,1,2,369,0,0,0,LTS0,0,0, Aleatherbeltp.jpg ,NOKEY,0,NOKEY
AB2 ,AB,1,2,370,1,1,1,LTS0,1260,1, Aleatherbeltp.jpg ,SPACE,1260,SPACE
AB2 ,AB,1,2,371,0,0,0,LTS0,0,0, Ablouse2.jpg ,NOKEY,0,NOKEY
AB2 ,AB,1,2,372,0,0,0,LTS0,0,0, launmower.jpg ,NOKEY,0,NOKEY
AB2 ,AB,1,2,373,0,0,0,LTS0,0,0, saltpeppershakerjpg.jpg ,NOKEY,0,NOKEY
AB2 ,AB,1,2,374,64,1,1,LTS0,1180,64, AASPHEQUA.jpg ,SPACE,1180,SPACE
AB2 ,AB,1,2,375,0,0,0,LTS0,0,0, Abathingsui10.jpg ,NOKEY,0,NOKEY
AB2 ,AB,1,2,376,0,0,0,LTS0,0,0, bagelN.jpg ,NOKEY,0,NOKEY
AB2 ,AB,1,2,377,0,0,0,LTS0,0,0, Adolphin3.jpg ,NOKEY,0,NOKEY
AB2 ,AB,1,2,378,0,0,0,LTS0,0,0, Amatplate.jpg ,NOKEY,0,NOKEY
AB2 ,AB,1,2,379,0,0,0,LTS0,0,0, Acarton4.jpg ,NOKEY,0,NOKEY
AB2 ,AB,1,2,380,0,0,0,LTS0,0,0, Astadium.jpg ,NOKEY,0,NOKEY
AB2 ,AB,1,2,381,0,0,0,LTS0,0,0, Astirstick.jpg ,NOKEY,0,NOKEY
AB2 ,AB,1,2,382,0,0,0,LTS0,0,0, E_tractor.jpg ,NOKEY,0,NOKEY
AB2 ,AB,1,2,383,0,0,0,LTS0,0,0, Aleopard19.jpg ,NOKEY,0,NOKEY
AB2 ,AB,1,2,384,0,0,0,LTS0,0,0, Afloweredsan3.jpg ,NOKEY,0,NOKEY
AB2 ,AB,1,2,385,0,0,0,LTS0,0,0, ACHOPBOWL.jpg ,NOKEY,0,NOKEY
AB2 ,AB,1,2,386,0,0,0,LTS0,0,0, 26374713.thl.jpg ,NOKEY,0,NOKEY
AB2 ,AB,1,2,387,0,0,0,LTS0,0,0, 26424133.thl.jpg ,NOKEY,0,NOKEY
AB2 ,AB,1,2,388,0,0,0,LTS0,0,0, 26423242.thl.jpg ,NOKEY,0,NOKEY
AB2 ,AB,1,2,389,0,0,0,LTS0,0,0, AFAN22.jpg ,NOKEY,0,NOKEY
AB2 ,AB,1,2,390,0,0,0,LTS0,0,0, 26432217.thl.jpg ,NOKEY,0,NOKEY
AB2 ,AB,1,2,391,0,0,0,LTS0,0,0, ACHEESEB3.jpg ,NOKEY,0,NOKEY
AB2 ,AB,1,2,392,0,0,0,LTS0,0,0, Aanchor15.jpg ,NOKEY,0,NOKEY
AB2 ,AB,1,2,393,128,1,1,LTS0,1320,00-across0, ARUSSDO13.jpg ,SPACE,1320,SPACE
AB2 ,AB,1,2,394,0,0,0,LTS0,0,0, ASPRITZER.jpg ,NOKEY,0,NOKEY
AB2 ,AB,1,2,395,0,0,0,LTS0,0,0, ABLUCAND5.jpg ,NOKEY,0,NOKEY
AB2 ,AB,1,2,396,0,0,0,LTS0,0,0, Adress6.jpg ,NOKEY,0,NOKEY
AB2 ,AB,1,2,397,0,0,0,LTS0,0,0, 22826832.thl.jpg ,NOKEY,0,NOKEY
AB2 ,AB,1,2,398,64,1,1,LTS0,1080,64, Aflower136.jpg ,SPACE,1080,SPACE
AB2 ,AB,1,2,399,0,0,0,LTS0,0,0, Hammock.jpg ,NOKEY,0,NOKEY
AB2 ,AB,1,2,400,0,0,0,LTS0,0,0, 26379671.thl.jpg ,NOKEY,0,NOKEY
AB2 ,AB,1,2,401,0,0,0,LTS0,0,0, Ababseat2.jpg ,NOKEY,0,NOKEY
AB2 ,AB,1,2,402,0,0,0,LTS0,0,0, ACOPPAN10.jpg ,NOKEY,0,NOKEY
AB2 ,AB,1,2,403,0,0,0,LTS0,0,0, 23016343.thl.jpg ,NOKEY,0,NOKEY
AB2 ,AB,1,2,404,0,0,0,LTS0,0,0, ShoeHorn.jpg ,NOKEY,0,NOKEY
AB2 ,AB,1,2,405,64,1,1,LTS0,1030,64_62-mul-0, for28524.jpg ,SPACE,1030,SPACE
AB2 ,AB,1,2,406,0,0,0,LTS0,0,0, AMALLET13.jpg ,NOKEY,0,NOKEY
AB2 ,AB,1,2,407,1,1,1,LTS0,1040,1, AMALLET13.jpg ,SPACE,1040,SPACE
AB2 ,AB,1,2,408,0,0,0,LTS0,0,0, Acatstatue3.jpg ,NOKEY,0,NOKEY
AB2 ,AB,1,2,409,0,0,0,LTS0,0,0, 8258244.thl.jpg ,NOKEY,0,NOKEY
AB2 ,AB,1,2,410,0,0,0,LTS0,0,0, telephoneN.JPG ,NOKEY,0,NOKEY
AB2 ,AB,1,2,411,0,0,0,LTS0,0,0, Abulletandca4.jpg ,NOKEY,0,NOKEY
AB2 ,AB,1,2,412,0,0,0,LTS0,0,0, Atoyball.jpg ,NOKEY,0,NOKEY
AB2 ,AB,1,2,413,0,0,0,LTS0,0,0, gytsl9.jpg ,NOKEY,0,NOKEY
AB2 ,AB,1,2,414,0,0,0,LTS0,0,0, ADUSTER5.jpg ,NOKEY,0,NOKEY
AB2 ,AB,1,2,415,0,0,0,LTS0,0,0, ACASTANET.jpg ,NOKEY,0,NOKEY
AB2 ,AB,1,2,416,0,0,0,LTS0,0,0, AJEWELBO3.jpg ,NOKEY,0,NOKEY
AB2 ,AB,1,2,417,2,1,1,LTS0,1080,2_2-first, ACASTANET.jpg ,SPACE,1080,SPACE
AB2 ,AB,1,2,418,0,0,0,LTS0,0,0, bands-a.jpg ,NOKEY,0,NOKEY
AB2 ,AB,1,2,419,0,0,0,LTS0,0,0, 26423477.thl.jpg ,NOKEY,0,NOKEY
AB2 ,AB,1,2,420,0,0,0,LTS0,0,0, ANEWSBOX4.jpg ,NOKEY,0,NOKEY
AB2 ,AB,1,2,421,0,0,0,LTS0,0,0, Aeggcup224.jpg ,NOKEY,0,NOKEY
AB2 ,AB,1,2,422,0,0,0,LTS0,0,0, Anoismake.jpg ,NOKEY,0,NOKEY
AB2 ,AB,1,2,423,0,0,0,LTS0,0,0, ACHERRY.jpg ,NOKEY,0,NOKEY
AB2 ,AB,1,2,424,0,0,0,LTS0,0,0, 26370027.thl.jpg ,NOKEY,0,NOKEY
AB2 ,AB,1,2,425,0,0,0,LTS0,0,0, footballpads.jpg ,NOKEY,0,NOKEY
AB2 ,AB,1,2,426,0,0,0,LTS0,0,0, grips.jpg ,NOKEY,0,NOKEY
AB2 ,AB,1,2,427,0,0,0,LTS0,0,0, Ahighlightin2.jpg ,NOKEY,0,NOKEY
AB2 ,AB,1,2,428,0,0,0,LTS0,0,0, 26457349.thl.jpg ,NOKEY,0,NOKEY
AB2 ,AB,1,2,429,0,0,0,LTS0,0,0, Acalligraphy2.jpg ,NOKEY,0,NOKEY
AB2 ,AB,1,2,430,0,0,0,LTS0,0,0, 26428110.thl.jpg ,NOKEY,0,NOKEY
AB2 ,AB,1,2,431,0,0,0,LTS0,0,0, 26421368.thl.jpg ,NOKEY,0,NOKEY
AB2 ,AB,1,2,432,0,0,0,LTS0,0,0, Abikinitop5.jpg ,NOKEY,0,NOKEY
AB2 ,AB,1,2,433,0,0,0,LTS0,0,0, Atoy33.jpg ,NOKEY,0,NOKEY
AB2 ,AB,1,2,434,0,0,0,LTS0,0,0, pdos043072.jpg ,NOKEY,0,NOKEY
AB2 ,AB,1,2,435,2,1,1,LTS0,810,2, Atoy33.jpg ,SPACE,810,SPACE
AB2 ,AB,1,2,436,0,0,0,LTS0,0,0, Asafetybelt.jpg ,NOKEY,0,NOKEY
AB2 ,AB,1,2,437,0,0,0,LTS0,0,0, AWOODRACK.jpg ,NOKEY,0,NOKEY
AB2 ,AB,1,2,438,0,0,0,LTS0,0,0, Apepperoni.jpg ,NOKEY,0,NOKEY
AB2 ,AB,1,2,439,0,0,0,LTS0,0,0, 26282587.thl.jpg ,NOKEY,0,NOKEY
AB2 ,AB,1,2,440,0,0,0,LTS0,0,0, wetsuit1.jpg ,NOKEY,0,NOKEY
AB2 ,AB,1,2,441,0,0,0,LTS0,0,0, cheeseA.JPG ,NOKEY,0,NOKEY
AB2 ,AB,1,2,442,0,0,0,LTS0,0,0, 23025535.thl.jpg ,NOKEY,0,NOKEY
AB2 ,AB,1,2,443,0,0,0,LTS0,0,0, ACHANGDIS.jpg ,NOKEY,0,NOKEY
AB2 ,AB,1,2,445,0,0,0,LTS0,0,0, AWATERCO4.jpg ,NOKEY,0,NOKEY
AB2 ,AB,1,2,446,0,0,0,LTS0,0,0, Aroadpylon3.jpg ,NOKEY,0,NOKEY
AB2 ,AB,1,2,447,0,0,0,LTS0,0,0, Aglassbottl56.jpg ,NOKEY,0,NOKEY
AB2 ,AB,1,2,448,0,0,0,LTS0,0,0, pacifierthermometer.jpg ,NOKEY,0,NOKEY
AB2 ,AB,1,2,449,0,0,0,LTS0,0,0, AWASHRACK.jpg ,NOKEY,0,NOKEY
AB2 ,AB,1,2,450,0,0,0,LTS0,0,0, 10049507.thl-1.jpg ,NOKEY,0,NOKEY
AB2 ,AB,1,2,451,0,0,0,LTS0,0,0, dog2A.JPG ,NOKEY,0,NOKEY
AB2 ,AB,1,2,452,0,0,0,LTS0,0,0, AMIXER.jpg ,NOKEY,0,NOKEY
AB2 ,AB,1,2,454,0,0,0,LTS0,0,0, 26425323.thl.jpg ,NOKEY,0,NOKEY
AB2 ,AB,1,2,455,0,0,0,LTS0,0,0, Astool76.jpg ,NOKEY,0,NOKEY
AB2 ,AB,1,2,456,0,0,0,LTS0,0,0, ABOOTCRA5.jpg ,NOKEY,0,NOKEY
AB2 ,AB,1,2,457,8,1,1,LTS0,990,8, AWASHRACK.jpg ,SPACE,990,SPACE
AB2 ,AB,1,2,458,0,0,0,LTS0,0,0, 26467460.thl.jpg ,NOKEY,0,NOKEY
AB2 ,AB,1,2,459,0,0,0,LTS0,0,0, AFILEBO11.jpg ,NOKEY,0,NOKEY
AB2 ,AB,1,2,460,0,0,0,LTS0,0,0, AANBABYCA.jpg ,NOKEY,0,NOKEY
AB2 ,AB,1,2,461,0,0,0,LTS0,0,0, lightsaber.jpg ,NOKEY,0,NOKEY
AB2 ,AB,1,2,462,0,0,0,LTS0,0,0, ABACKHOE2.jpg ,NOKEY,0,NOKEY
AB2 ,AB,1,2,463,0,0,0,LTS0,0,0, AWOODFLUT.jpg ,NOKEY,0,NOKEY
AB2 ,AB,1,2,464,0,0,0,LTS0,0,0, Alaundrybask2.jpg ,NOKEY,0,NOKEY
AB2 ,AB,1,2,465,0,0,0,LTS0,0,0, AWATERJU3.jpg ,NOKEY,0,NOKEY
AB2 ,AB,1,2,466,0,0,0,LTS0,0,0, ABORKEHOR.jpg ,NOKEY,0,NOKEY
AB2 ,AB,1,2,467,0,0,0,LTS0,0,0, Afoodproces27.jpg ,NOKEY,0,NOKEY
AB2 ,AB,1,2,468,128,1,1,LTS0,810,128_120-mul-0, ATISSUE.jpg ,SPACE,810,SPACE
AB2 ,AB,1,2,469,0,0,0,LTS0,0,0, E_helicopter.jpg ,NOKEY,0,NOKEY
AB2 ,AB,1,2,470,0,0,0,LTS0,0,0, APITCHE15.jpg ,NOKEY,0,NOKEY
AB2 ,AB,1,2,471,0,0,0,LTS0,0,0, seasponge.jpg ,NOKEY,0,NOKEY
AB2 ,AB,1,2,472,0,0,0,LTS0,0,0, Agroundhog.jpg ,NOKEY,0,NOKEY
AB2 ,AB,1,2,473,0,0,0,LTS0,0,0, Akazoo2.jpg ,NOKEY,0,NOKEY
AB2 ,AB,1,2,474,0,0,0,LTS0,0,0, 30835757.thl.jpg ,NOKEY,0,NOKEY
AB2 ,AB,1,2,475,0,0,0,LTS0,0,0, AHAIRCLI6.jpg ,NOKEY,0,NOKEY
AB2 ,AB,1,2,477,0,0,0,LTS0,0,0, ACAMPFIRE.jpg ,NOKEY,0,NOKEY
AB2 ,AB,1,2,478,4,1,1,LTS0,950,4, 30835757.thl.jpg ,SPACE,950,SPACE
AB2 ,AB,1,2,479,0,0,0,LTS0,0,0, Aheartmonito4.jpg ,NOKEY,0,NOKEY
AB2 ,AB,1,2,481,0,0,0,LTS0,0,0, Adinningroomt.jpg ,NOKEY,0,NOKEY
AB2 ,AB,1,2,482,0,0,0,LTS0,0,0, gymbench.jpg ,NOKEY,0,NOKEY
AB2 ,AB,1,2,483,0,0,0,LTS0,0,0, AALTAR.jpg ,NOKEY,0,NOKEY
AB2 ,AB,1,2,484,0,0,0,LTS0,0,0, ronald.jpg ,NOKEY,0,NOKEY
AB2 ,AB,1,2,485,0,0,0,LTS0,0,0, donaldduck.jpg ,NOKEY,0,NOKEY
AB2 ,AB,1,2,486,0,0,0,LTS0,0,0, Aroulette.jpg ,NOKEY,0,NOKEY
AB2 ,AB,1,2,487,0,0,0,LTS0,0,0, Aredumbr3.jpg ,NOKEY,0,NOKEY
AB2 ,AB,1,2,488,0,0,0,LTS0,0,0, 26772987.thl.jpg ,NOKEY,0,NOKEY
AB2 ,AB,1,2,489,0,0,0,LTS0,0,0, Aplantinpot4.jpg ,NOKEY,0,NOKEY
AB2 ,AB,1,2,490,0,0,0,LTS0,0,0, 26428682.thl.jpg ,NOKEY,0,NOKEY
AB2 ,AB,1,2,491,0,0,0,LTS0,0,0, ABULLDOG5.jpg ,NOKEY,0,NOKEY
AB2 ,AB,1,2,492,0,0,0,LTS0,0,0, 22910936.thl.jpg ,NOKEY,0,NOKEY
AB2 ,AB,1,2,493,0,0,0,LTS0,0,0, ARICE2.jpg ,NOKEY,0,NOKEY
AB2 ,AB,1,2,494,0,0,0,LTS0,0,0, ATURKEY11.jpg ,NOKEY,0,NOKEY
AB2 ,AB,1,2,495,0,0,0,LTS0,0,0, 22851864.thl.jpg ,NOKEY,0,NOKEY
AB2 ,AB,1,2,496,16,1,1,LTS0,830,16_16-mul-0, strawberrytart.jpg ,SPACE,830,SPACE
AB2 ,AB,1,2,497,0,0,0,LTS0,0,0, AHOCKPANT.jpg ,NOKEY,0,NOKEY
AB2 ,AB,1,2,499,0,0,0,LTS0,0,0, funlamp.jpg ,NOKEY,0,NOKEY
AB2 ,AB,1,2,500,0,0,0,LTS0,0,0, 26429137.thl.jpg ,NOKEY,0,NOKEY
AB2 ,AB,1,2,501,0,0,0,LTS0,0,0, ARECORDSY.jpg ,NOKEY,0,NOKEY
AB2 ,AB,1,2,502,0,0,0,LTS0,0,0, zip-a.jpg ,NOKEY,0,NOKEY
AB2 ,AB,1,2,503,0,0,0,LTS0,0,0, fullbucket.jpg ,NOKEY,0,NOKEY
AB2 ,AB,1,2,504,0,0,0,LTS0,0,0, Aoilcan11.jpg ,NOKEY,0,NOKEY
AB2 ,AB,1,2,505,0,0,0,LTS0,0,0, Adalmatiandog.jpg ,NOKEY,0,NOKEY
AB2 ,AB,1,2,506,0,0,0,LTS0,0,0, Asafetyrope.jpg ,NOKEY,0,NOKEY
AB2 ,AB,1,2,507,0,0,0,LTS0,0,0, 35314138.thl.jpg ,NOKEY,0,NOKEY
AB2 ,AB,1,2,508,0,0,0,LTS0,0,0, AOPGLASS.jpg ,NOKEY,0,NOKEY
AB2 ,AB,1,2,509,0,0,0,LTS0,0,0, DSCN3757-sm.jpg ,NOKEY,0,NOKEY
AB2 ,AB,1,2,510,0,0,0,LTS0,0,0, Alobster10.jpg ,NOKEY,0,NOKEY
AB2 ,AB,1,2,511,64,1,1,LTS0,1360,64, Aglassbottl56.jpg ,SPACE,1360,SPACE
AB2 ,AB,1,2,512,0,0,0,LTS0,0,0, AGLASSWI5.jpg ,NOKEY,0,NOKEY
AB2 ,AB,1,2,513,0,0,0,LTS0,0,0, AWEIGHT11.jpg ,NOKEY,0,NOKEY
AB2 ,AB,1,2,514,0,0,0,LTS0,0,0, ATHEASEA2.jpg ,NOKEY,0,NOKEY
AB2 ,AB,1,2,515,0,0,0,LTS0,0,0, Awomensshoe61.jpg ,NOKEY,0,NOKEY
AB2 ,AB,1,2,517,0,0,0,LTS0,0,0, AAFRIMAS5.jpg ,NOKEY,0,NOKEY
AB2 ,AB,1,2,518,0,0,0,LTS0,0,0, ACHALCED2.jpg ,NOKEY,0,NOKEY
AB2 ,AB,1,2,519,2,1,1,LTS0,1300,2_2-first, AAFRIMAS5.jpg ,SPACE,1300,SPACE
AB2 ,AB,1,2,520,0,0,0,LTS0,0,0, ABOTTLE19.jpg ,NOKEY,0,NOKEY
AB2 ,AB,1,2,521,0,0,0,LTS0,0,0, Abathroomcup3.jpg ,NOKEY,0,NOKEY
AB2 ,AB,1,2,522,0,0,0,LTS0,0,0, Aeagle.jpg ,NOKEY,0,NOKEY
AB2 ,AB,1,2,523,0,0,0,LTS0,0,0, AOLDBAT2.jpg ,NOKEY,0,NOKEY
AB2 ,AB,1,2,524,1,1,1,LTS0,740,1, AOLDBAT2.jpg ,SPACE,740,SPACE
AB2 ,AB,1,2,525,0,0,0,LTS0,0,0, Areindeer2.jpg ,NOKEY,0,NOKEY
AB2 ,AB,1,2,526,0,0,0,LTS0,0,0, 26437082.thl.jpg ,NOKEY,0,NOKEY
AB2 ,AB,1,2,527,0,0,0,LTS0,0,0, AHOOK11.jpg ,NOKEY,0,NOKEY
AB2 ,AB,1,2,528,0,0,0,LTS0,0,0, AORGAN.jpg ,NOKEY,0,NOKEY
AB2 ,AB,1,2,529,2,1,1,LTS0,900,2, AHOOK11.jpg ,SPACE,900,SPACE
AB2 ,AB,1,2,530,0,0,0,LTS0,0,0, Amilkcrate2.jpg ,NOKEY,0,NOKEY
AB2 ,AB,1,2,531,0,0,0,LTS0,0,0, 26433347.thl.jpg ,NOKEY,0,NOKEY
AB2 ,AB,1,2,533,0,0,0,LTS0,0,0, 26379430.thl.jpg ,NOKEY,0,NOKEY
AB2 ,AB,1,2,534,2,1,1,LTS0,880,2_2-mul-0, 26437080.thl.jpg ,SPACE,880,SPACE
AB2 ,AB,1,2,535,0,0,0,LTS0,0,0, Arabbit39.jpg ,NOKEY,0,NOKEY
AB2 ,AB,1,2,536,0,0,0,LTS0,0,0, Ametalstool2.jpg ,NOKEY,0,NOKEY
AB2 ,AB,1,2,537,0,0,0,LTS0,0,0, ACOW6.jpg ,NOKEY,0,NOKEY
AB2 ,AB,1,2,538,0,0,0,LTS0,0,0, grenade.jpg ,NOKEY,0,NOKEY
AB2 ,AB,1,2,540,0,0,0,LTS0,0,0, 26440756.thl.jpg ,NOKEY,0,NOKEY
AB2 ,AB,1,2,541,0,0,0,LTS0,0,0, AANTTRUCK.jpg ,NOKEY,0,NOKEY
AB2 ,AB,1,2,542,0,0,0,LTS0,0,0, Afoodprocess4.jpg ,NOKEY,0,NOKEY
AB2 ,AB,1,2,543,128,1,1,LTS0,1050,128_126-mul-0, ACASTANET.jpg ,SPACE,1050,SPACE
AB2 ,AB,1,2,544,0,0,0,LTS0,0,0, 8020347.thl.jpg ,NOKEY,0,NOKEY
AB2 ,AB,1,2,545,0,0,0,LTS0,0,0, AWEIGHT7.jpg ,NOKEY,0,NOKEY
AB2 ,AB,1,2,546,8,1,1,LTS0,930,8, grenade.jpg ,SPACE,930,SPACE
AB2 ,AB,1,2,547,0,0,0,LTS0,0,0, Atoyboat10.jpg ,NOKEY,0,NOKEY
AB2 ,AB,1,2,548,0,0,0,LTS0,0,0, 26434209.thl.jpg ,NOKEY,0,NOKEY
AB2 ,AB,1,2,549,0,0,0,LTS0,0,0, ABAKINGPA.jpg ,NOKEY,0,NOKEY
AB2 ,AB,1,2,550,0,0,0,LTS0,0,0, 26369944.thl.jpg ,NOKEY,0,NOKEY
AB2 ,AB,1,2,551,0,0,0,LTS0,0,0, Asafetygoggle.jpg ,NOKEY,0,NOKEY
AB2 ,AB,1,2,552,0,0,0,LTS0,0,0, AREEL.jpg ,NOKEY,0,NOKEY
AB2 ,AB,1,2,553,0,0,1,LTS0,960,0, Acabinet49.jpg ,SPACE,960,NOKEY
AB2 ,AB,1,2,554,32,1,1,LTS0,990,32, Aeagle.jpg ,SPACE,990,SPACE
AB2 ,AB,1,2,555,0,0,0,LTS0,0,0, Atoymoose.jpg ,NOKEY,0,NOKEY
AB2 ,AB,1,2,556,0,0,0,LTS0,0,0, 8027656.thl.jpg ,NOKEY,0,NOKEY
AB2 ,AB,1,2,558,0,0,0,LTS0,0,0, hairbarette.jpg ,NOKEY,0,NOKEY
AB2 ,AB,1,2,559,0,0,0,LTS0,0,0, Arake4.jpg ,NOKEY,0,NOKEY
AB2 ,AB,1,2,560,0,0,0,LTS0,0,0, Aknife76.jpg ,NOKEY,0,NOKEY
AB2 ,AB,1,2,561,0,0,0,LTS0,0,0, Amicroscope21.jpg ,NOKEY,0,NOKEY
AB2 ,AB,1,2,562,0,0,0,LTS0,0,0, Arubberworksh.jpg ,NOKEY,0,NOKEY
AB2 ,AB,1,2,563,0,0,0,LTS0,0,0, Aadjustablec2.jpg ,NOKEY,0,NOKEY
AB2 ,AB,1,2,564,0,0,0,LTS0,0,0, Awildberries.jpg ,NOKEY,0,NOKEY
AB2 ,AB,1,2,565,0,0,0,LTS0,0,0, Aearth3.jpg ,NOKEY,0,NOKEY
AB2 ,AB,1,2,566,0,0,0,LTS0,0,0, 8244991.thl.jpg ,NOKEY,0,NOKEY
AB2 ,AB,1,2,567,1,1,1,LTS0,930,1, 8244991.thl.jpg ,SPACE,930,SPACE
AB2 ,AB,1,2,568,0,0,0,LTS0,0,0, AREDROSE8.jpg ,NOKEY,0,NOKEY
AB2 ,AB,1,2,569,0,0,0,LTS0,0,0, Aearsyringe.jpg ,NOKEY,0,NOKEY
AB2 ,AB,1,2,570,0,0,0,LTS0,0,0, AANTICAN2.jpg ,NOKEY,0,NOKEY
AB2 ,AB,1,2,571,0,0,0,LTS0,0,0, 8060342.thl.jpg ,NOKEY,0,NOKEY
AB2 ,AB,1,2,572,0,0,0,LTS0,0,0, Aleaf74.jpg ,NOKEY,0,NOKEY
AB2 ,AB,1,2,573,0,0,0,LTS0,0,0, B_brush.jpg ,NOKEY,0,NOKEY
AB2 ,AB,1,2,574,0,0,0,LTS0,0,0, Agrandpiano13.jpg ,NOKEY,0,NOKEY
AB2 ,AB,1,2,575,0,0,0,LTS0,0,0, ACAESALAD.jpg ,NOKEY,0,NOKEY
AB2 ,AB,1,2,576,0,0,0,LTS0,0,0, ASKYDIVE.jpg ,NOKEY,0,NOKEY
AB2 ,AB,1,2,577,0,0,0,LTS0,0,0, AARTIVE8.jpg ,NOKEY,0,NOKEY
AB2 ,AB,1,2,578,0,0,0,LTS0,0,0, 26555896.thl.jpg ,NOKEY,0,NOKEY
AB2 ,AB,1,2,579,0,0,0,LTS0,0,0, ADIAMCRYS.jpg ,NOKEY,0,NOKEY
AB2 ,AB,1,3,580,0,0,0,LTS0,0,0, Aseahorse4.jpg ,NOKEY,0,NOKEY
AB2 ,AB,1,3,581,32,1,1,LTS0,970,00-across0, ABAKINGPA.jpg ,SPACE,970,SPACE
AB2 ,AB,1,3,582,0,0,0,LTS0,0,0, Abicycleglove.jpg ,NOKEY,0,NOKEY
AB2 ,AB,1,3,583,0,0,0,LTS0,0,0, AMAGGLASS.jpg ,NOKEY,0,NOKEY
AB2 ,AB,1,3,584,0,0,0,LTS0,0,0, 8020200.thl.jpg ,NOKEY,0,NOKEY
AB2 ,AB,1,3,585,0,0,0,LTS0,0,0, AANTRAD26.jpg ,NOKEY,0,NOKEY
AB2 ,AB,1,3,586,0,0,0,LTS0,0,0, Abagofherbs.jpg ,NOKEY,0,NOKEY
AB2 ,AB,1,3,587,0,0,0,LTS0,0,0, weddingdress.jpg ,NOKEY,0,NOKEY
AB2 ,AB,1,3,588,16,1,1,LTS0,960,00-across0, Aleaf74.jpg ,SPACE,960,SPACE
AB2 ,AB,1,3,589,0,0,0,LTS0,0,0, chocolatecake2.jpg ,NOKEY,0,NOKEY
AB2 ,AB,1,3,590,0,0,0,LTS0,0,0, 26370651.thm.jpg ,NOKEY,0,NOKEY
AB2 ,AB,1,3,592,0,0,0,LTS0,0,0, AWOODST19.jpg ,NOKEY,0,NOKEY
AB2 ,AB,1,3,593,0,0,0,LTS0,0,0, 8023968.thl.jpg ,NOKEY,0,NOKEY
AB2 ,AB,1,3,594,0,0,0,LTS0,0,0, Apocketwatch.jpg ,NOKEY,0,NOKEY
AB2 ,AB,1,3,595,4,1,1,LTS0,880,4_4-mul-0, Aclock213.jpg ,SPACE,880,SPACE
AB2 ,AB,1,3,596,0,0,0,LTS0,0,0, 8079958.thl.jpg ,NOKEY,0,NOKEY
AB2 ,AB,1,3,597,0,0,0,LTS0,0,0, candy3.jpg ,NOKEY,0,NOKEY
AB2 ,AB,1,3,598,0,0,0,LTS0,0,0, 26426317.thl.jpg ,NOKEY,0,NOKEY
AB2 ,AB,1,3,599,0,0,0,LTS0,0,0, ADOORHAN8.jpg ,NOKEY,0,NOKEY
AB2 ,AB,1,3,600,0,0,0,LTS0,0,0, Agardeningsho.jpg ,NOKEY,0,NOKEY
AB2 ,AB,1,3,601,0,0,0,LTS0,0,0, 26378986.thl.jpg ,NOKEY,0,NOKEY
AB2 ,AB,1,3,602,0,0,0,LTS0,0,0, AFLAMEXTI.jpg ,NOKEY,0,NOKEY
AB2 ,AB,1,3,603,0,0,0,LTS0,0,0, A_cookie.jpg ,NOKEY,0,NOKEY
AB2 ,AB,1,3,604,0,0,0,LTS0,0,0, taz.jpg ,NOKEY,0,NOKEY
AB2 ,AB,1,3,605,0,0,0,LTS0,0,0, ABIKLIGHT.jpg ,NOKEY,0,NOKEY
AB2 ,AB,1,3,606,16,1,1,LTS0,800,16, 26370651.thm.jpg ,SPACE,800,SPACE
AB2 ,AB,1,3,607,0,0,0,LTS0,0,0, AMINITRE7.jpg ,NOKEY,0,NOKEY
AB2 ,AB,1,3,608,0,0,0,LTS0,0,0, Acamerabag.jpg ,NOKEY,0,NOKEY
AB2 ,AB,1,3,609,0,0,0,LTS0,0,0, Asewingpins.jpg ,NOKEY,0,NOKEY
AB2 ,AB,1,3,610,0,0,0,LTS0,0,0, ALEOPARD4.jpg ,NOKEY,0,NOKEY
AB2 ,AB,1,3,611,0,0,0,LTS0,0,0, bait04.jpg ,NOKEY,0,NOKEY
AB2 ,AB,1,3,612,0,0,0,LTS0,0,0, 8061236.thl.jpg ,NOKEY,0,NOKEY
AB2 ,AB,1,3,613,64,1,1,LTS0,1330,00-across0, ABAKINGPA.jpg ,SPACE,1330,SPACE
AB2 ,AB,1,3,614,0,0,0,LTS0,0,0, workweightmach.jpg ,NOKEY,0,NOKEY
AB2 ,AB,1,3,615,0,0,0,LTS0,0,0, ASADDLE2.jpg ,NOKEY,0,NOKEY
AB2 ,AB,1,3,617,0,0,0,LTS0,0,0, Adecorativet3.jpg ,NOKEY,0,NOKEY
AB2 ,AB,1,3,618,0,0,0,LTS0,0,0, Aseal3.jpg ,NOKEY,0,NOKEY
AB2 ,AB,1,3,619,0,0,0,LTS0,0,0, Ascroll4.jpg ,NOKEY,0,NOKEY
AB2 ,AB,1,3,621,0,0,0,LTS0,0,0, Aboardgame2.jpg ,NOKEY,0,NOKEY
AB2 ,AB,1,3,622,0,0,0,LTS0,0,0, Achair608.jpg ,NOKEY,0,NOKEY
AB2 ,AB,1,3,623,0,0,0,LTS0,0,0, Afish57.jpg ,NOKEY,0,NOKEY
AB2 ,AB,1,3,624,0,0,0,LTS0,0,0, Achildtoy2.jpg ,NOKEY,0,NOKEY
AB2 ,AB,1,3,625,0,0,0,LTS0,0,0, cd2-a.jpg ,NOKEY,0,NOKEY
AB2 ,AB,1,3,626,0,0,0,LTS0,0,0, AHANDPRE3.jpg ,NOKEY,0,NOKEY
AB2 ,AB,1,3,627,0,0,0,LTS0,0,0, ATRACINGT.jpg ,NOKEY,0,NOKEY
AB2 ,AB,1,3,628,0,0,0,LTS0,0,0, 23070748.thl.jpg ,NOKEY,0,NOKEY
AB2 ,AB,1,3,629,0,0,0,LTS0,0,0, Atoychameleo2.jpg ,NOKEY,0,NOKEY
AB2 ,AB,1,3,630,0,0,0,LTS0,0,0, 8245207.thl.jpg ,NOKEY,0,NOKEY
AB2 ,AB,1,3,631,0,0,0,LTS0,0,0, 36411021.thl.jpg ,NOKEY,0,NOKEY
AB2 ,AB,1,3,632,0,0,0,LTS0,0,0, 8059226.thl.jpg ,NOKEY,0,NOKEY
AB2 ,AB,1,3,633,0,0,0,LTS0,0,0, hottub.jpg ,NOKEY,0,NOKEY
AB2 ,AB,1,3,634,0,0,0,LTS0,0,0, Acoffeebeans2.jpg ,NOKEY,0,NOKEY
AB2 ,AB,1,3,635,0,0,0,LTS0,0,0, ABEERBOT5.jpg ,NOKEY,0,NOKEY
AB2 ,AB,1,3,636,1,1,1,LTS0,820,1, ABEERBOT5.jpg ,SPACE,820,SPACE
AB2 ,AB,1,3,637,0,0,0,LTS0,0,0, APEELER.jpg ,NOKEY,0,NOKEY
AB2 ,AB,1,3,638,0,0,0,LTS0,0,0, 26687931.thl.jpg ,NOKEY,0,NOKEY
AB2 ,AB,1,3,639,0,0,0,LTS0,0,0, tuba1.jpg ,NOKEY,0,NOKEY
AB2 ,AB,1,3,640,0,0,0,LTS0,0,0, Astamp23.jpg ,NOKEY,0,NOKEY
AB2 ,AB,1,3,641,0,0,0,LTS0,0,0, AMINICYM6.jpg ,NOKEY,0,NOKEY
AB2 ,AB,1,3,642,0,0,0,LTS0,0,0, ANAPRINGS.jpg ,NOKEY,0,NOKEY
AB2 ,AB,1,3,643,0,0,0,LTS0,0,0, 22869912.thl.jpg ,NOKEY,0,NOKEY
AB2 ,AB,1,3,644,0,0,0,LTS0,0,0, ADARKLAMP.jpg ,NOKEY,0,NOKEY
AB2 ,AB,1,3,645,0,0,0,LTS0,0,0, panteneshampoing.jpg ,NOKEY,0,NOKEY
AB2 ,AB,1,3,646,0,0,0,LTS0,0,0, Aantiquerota7.jpg ,NOKEY,0,NOKEY
AB2 ,AB,1,3,647,0,0,0,LTS0,0,0, ACOOKOIL.jpg ,NOKEY,0,NOKEY
AB2 ,AB,1,3,648,0,0,0,LTS0,0,0, ANAPKHOL7.jpg ,NOKEY,0,NOKEY
AB2 ,AB,1,3,649,0,0,0,LTS0,0,0, XPGame.jpg ,NOKEY,0,NOKEY
AB2 ,AB,1,3,650,4,1,1,LTS0,1050,4, Aantiquerota7.jpg ,SPACE,1050,SPACE
AB2 ,AB,1,3,651,0,0,0,LTS0,0,0, chunkysoup.jpg ,NOKEY,0,NOKEY
AB2 ,AB,1,3,652,0,0,0,LTS0,0,0, Apenguin2.jpg ,NOKEY,0,NOKEY
AB2 ,AB,1,3,653,4,1,1,LTS0,950,4, XPGame.jpg ,SPACE,950,SPACE
AB2 ,AB,1,3,654,0,0,0,LTS0,0,0, Aspoonofsuga2.jpg ,NOKEY,0,NOKEY
AB2 ,AB,1,3,655,0,0,0,LTS0,0,0, ACRANE9.jpg ,NOKEY,0,NOKEY
AB2 ,AB,1,3,656,0,0,0,LTS0,0,0, ACRIB17.jpg ,NOKEY,0,NOKEY
AB2 ,AB,1,3,657,0,0,0,LTS0,0,0, handcomputerN.JPG ,NOKEY,0,NOKEY
AB2 ,AB,1,3,658,0,0,0,LTS0,0,0, Apinkshoe.jpg ,NOKEY,0,NOKEY
AB2 ,AB,1,3,659,0,0,0,LTS0,0,0, 22807718.thl.jpg ,NOKEY,0,NOKEY
AB2 ,AB,1,3,660,0,0,0,LTS0,0,0, Awichbro2.jpg ,NOKEY,0,NOKEY
AB2 ,AB,1,3,661,0,0,0,LTS0,0,0, Ascroll7.jpg ,NOKEY,0,NOKEY
AB2 ,AB,1,3,662,4,1,1,LTS0,1130,4, Apinkshoe.jpg ,SPACE,1130,SPACE
AB2 ,AB,1,3,663,0,0,0,LTS0,0,0, AWASHOPEN.jpg ,NOKEY,0,NOKEY
AB2 ,AB,1,3,664,0,0,0,LTS0,0,0, AJUG3.jpg ,NOKEY,0,NOKEY
AB2 ,AB,1,3,665,0,0,0,LTS0,0,0, APHONEFA2.jpg ,NOKEY,0,NOKEY
AB2 ,AB,1,3,666,0,0,0,LTS0,0,0, 26441176.thl.jpg ,NOKEY,0,NOKEY
AB2 ,AB,1,3,667,0,0,0,LTS0,0,0, 8019781.thl.jpg ,NOKEY,0,NOKEY
AB2 ,AB,1,3,668,0,0,0,LTS0,0,0, Adrum22.jpg ,NOKEY,0,NOKEY
AB2 ,AB,1,3,669,0,0,0,LTS0,0,0, 22856988.thl.jpg ,NOKEY,0,NOKEY
AB2 ,AB,1,3,670,0,0,0,LTS0,0,0, ADRAWBRI3.jpg ,NOKEY,0,NOKEY
AB2 ,AB,1,3,671,0,0,0,LTS0,0,0, Aspeakers4.jpg ,NOKEY,0,NOKEY
AB2 ,AB,1,3,672,0,0,0,LTS0,0,0, ABOWARRO8.jpg ,NOKEY,0,NOKEY
AB2 ,AB,1,3,673,0,0,0,LTS0,0,0, ABAGFLOU3.jpg ,NOKEY,0,NOKEY
AB2 ,AB,1,3,674,0,0,0,LTS0,0,0, Acarnivalgame.jpg ,NOKEY,0,NOKEY
AB2 ,AB,1,3,675,0,0,0,LTS0,0,0, batslbir.jpg ,NOKEY,0,NOKEY
AB2 ,AB,1,3,676,0,0,0,LTS0,0,0, Atrumpetwith2.jpg ,NOKEY,0,NOKEY
AB2 ,AB,1,3,677,0,0,0,LTS0,0,0, AGASLAMP.jpg ,NOKEY,0,NOKEY
AB2 ,AB,1,3,678,0,0,0,LTS0,0,0, Aservicedesk.jpg ,NOKEY,0,NOKEY
AB2 ,AB,1,3,679,0,0,0,LTS0,0,0, 26374798.thl.jpg ,NOKEY,0,NOKEY
AB2 ,AB,1,3,680,16,1,1,LTS0,1040,16, AJUG3.jpg ,SPACE,1040,SPACE
AB2 ,AB,1,3,681,0,0,0,LTS0,0,0, ADRESSE14.jpg ,NOKEY,0,NOKEY
AB2 ,AB,1,3,682,16,1,1,LTS0,1200,16, 26441176.thl.jpg ,SPACE,1200,SPACE
AB2 ,AB,1,3,683,0,0,0,LTS0,0,0, AMUSISTA2.jpg ,NOKEY,0,NOKEY
AB2 ,AB,1,3,684,0,0,0,LTS0,0,0, changepurse03.jpg ,NOKEY,0,NOKEY
AB2 ,AB,1,3,685,0,0,0,LTS0,0,0, Ablackleather.jpg ,NOKEY,0,NOKEY
AB2 ,AB,1,3,686,0,0,0,LTS0,0,0, Achair611.jpg ,NOKEY,0,NOKEY
AB2 ,AB,1,3,687,0,0,0,LTS0,0,0, AMUSICSTA.jpg ,NOKEY,0,NOKEY
AB2 ,AB,1,3,688,0,0,0,LTS0,0,0, Amanatee2.jpg ,NOKEY,0,NOKEY
AB2 ,AB,1,3,689,0,0,0,LTS0,0,0, 26375953.thl.jpg ,NOKEY,0,NOKEY
AB2 ,AB,1,3,690,0,0,0,LTS0,0,0, 26393373.thl.jpg ,NOKEY,0,NOKEY
AB2 ,AB,1,3,691,0,0,0,LTS0,0,0, Alintbrush2.jpg ,NOKEY,0,NOKEY
AB2 ,AB,1,3,692,0,0,0,LTS0,0,0, Agasblower2.jpg ,NOKEY,0,NOKEY
AB2 ,AB,1,3,693,0,0,0,LTS0,0,0, 22849260.thl.jpg ,NOKEY,0,NOKEY
AB2 ,AB,1,3,694,0,0,0,LTS0,0,0, Anailbrush3.jpg ,NOKEY,0,NOKEY
AB2 ,AB,1,3,695,0,0,0,LTS0,0,0, toypieces.jpg ,NOKEY,0,NOKEY
AB2 ,AB,1,3,696,0,0,0,LTS0,0,0, AALTIRE2.jpg ,NOKEY,0,NOKEY
AB2 ,AB,1,3,697,0,0,0,LTS0,0,0, Agolfplaque.jpg ,NOKEY,0,NOKEY
AB2 ,AB,1,3,698,0,0,0,LTS0,0,0, AGOLDCUP6.jpg ,NOKEY,0,NOKEY
AB2 ,AB,1,3,699,4,1,1,LTS0,1160,4, toypieces.jpg ,SPACE,1160,SPACE
AB2 ,AB,1,3,700,0,0,0,LTS0,0,0, Aorcatoy4.jpg ,NOKEY,0,NOKEY
AB2 ,AB,1,3,701,8,1,1,LTS0,1190,8_8-first, 22849260.thl.jpg ,SPACE,1190,SPACE
AB2 ,AB,1,3,702,0,0,0,LTS0,0,0, ATELEPH12.jpg ,NOKEY,0,NOKEY
AB2 ,AB,1,3,703,0,0,0,LTS0,0,0, AMICRO67.jpg ,NOKEY,0,NOKEY
AB2 ,AB,1,3,704,0,0,0,LTS0,0,0, 26391079.thl.jpg ,NOKEY,0,NOKEY
AB2 ,AB,1,3,706,0,0,0,LTS0,0,0, Aintercom6.jpg ,NOKEY,0,NOKEY
AB2 ,AB,1,3,707,0,0,0,LTS0,0,0, catsl60.jpg ,NOKEY,0,NOKEY
AB2 ,AB,1,3,708,0,0,0,LTS0,0,0, Acandycanesin.jpg ,NOKEY,0,NOKEY
AB2 ,AB,1,3,709,0,0,0,LTS0,0,0, Aslicedbread.jpg ,NOKEY,0,NOKEY
AB2 ,AB,1,3,710,0,0,0,LTS0,0,0, ABUILDI12.jpg ,NOKEY,0,NOKEY
AB2 ,AB,1,3,711,0,0,0,LTS0,0,0, 26391116.thl.jpg ,NOKEY,0,NOKEY
AB2 ,AB,1,3,712,0,0,0,LTS0,0,0, 096CM301000.jpg ,NOKEY,0,NOKEY
AB2 ,AB,1,3,713,0,0,0,LTS0,0,0, Abicyclepump2.jpg ,NOKEY,0,NOKEY
AB2 ,AB,1,3,714,0,0,0,LTS0,0,0, Astaplegun3.jpg ,NOKEY,0,NOKEY
AB2 ,AB,1,3,715,0,0,0,LTS0,0,0, Apicturefra29.jpg ,NOKEY,0,NOKEY
AB2 ,AB,1,3,716,0,0,0,LTS0,0,0, Astapler12.jpg ,NOKEY,0,NOKEY
AB2 ,AB,1,3,717,0,0,0,LTS0,0,0, 26428576.thl.jpg ,NOKEY,0,NOKEY
AB2 ,AB,1,3,718,0,0,0,LTS0,0,0, 03015528000.jpg ,NOKEY,0,NOKEY
AB2 ,AB,1,3,719,2,1,1,LTS0,810,2, 26428576.thl.jpg ,SPACE,810,SPACE
AB2 ,AB,1,3,720,0,0,0,LTS0,0,0, 23041782.thl.jpg ,NOKEY,0,NOKEY
AB2 ,AB,1,3,721,0,0,0,LTS0,0,0, ACHEESLIC.jpg ,NOKEY,0,NOKEY
AB2 ,AB,1,3,722,0,0,0,LTS0,0,0, checkejellyjar.jpg ,NOKEY,0,NOKEY
AB2 ,AB,1,3,723,0,0,0,LTS0,0,0, AEXERCBIK.jpg ,NOKEY,0,NOKEY
AB2 ,AB,1,3,724,0,0,0,LTS0,0,0, APIZZA17.jpg ,NOKEY,0,NOKEY
AB2 ,AB,1,3,725,32,1,1,LTS0,1230,32_24-mul-0, 22849260.thl.jpg ,SPACE,1230,SPACE
AB2 ,AB,1,3,726,0,0,0,LTS0,0,0, 26376346.thl.jpg ,NOKEY,0,NOKEY
AB2 ,AB,1,3,727,0,0,0,LTS0,0,0, sportsillustrated.jpg ,NOKEY,0,NOKEY
AB2 ,AB,1,3,728,0,0,0,LTS0,0,0, ATELEBO13.jpg ,NOKEY,0,NOKEY
AB2 ,AB,1,3,729,0,0,0,LTS0,0,0, ATUNFORK2.jpg ,NOKEY,0,NOKEY
AB2 ,AB,1,3,730,0,0,0,LTS0,0,0, ABARREL3.jpg ,NOKEY,0,NOKEY
AB2 ,AB,1,3,731,1,1,1,LTS0,1050,1_1-first, ABARREL3.jpg ,SPACE,1050,SPACE
AB2 ,AB,1,3,732,0,0,0,LTS0,0,0, Aclowguit.jpg ,NOKEY,0,NOKEY
AB2 ,AB,1,3,733,0,0,0,LTS0,0,0, dresserA.JPG ,NOKEY,0,NOKEY
AB2 ,AB,1,3,734,4,1,1,LTS0,1100,4_3-mul-0, ABARREL3.jpg ,SPACE,1100,SPACE
AB2 ,AB,1,3,735,0,0,0,LTS0,0,0, 26379054.thl.jpg ,NOKEY,0,NOKEY
AB2 ,AB,1,3,736,8,1,1,LTS0,1130,8, ATELEBO13.jpg ,SPACE,1130,SPACE
AB2 ,AB,1,3,737,0,0,0,LTS0,0,0, candy2.jpg ,NOKEY,0,NOKEY
AB2 ,AB,1,3,738,0,0,0,LTS0,0,0, ACURLIR13.jpg ,NOKEY,0,NOKEY
AB2 ,AB,1,3,739,0,0,0,LTS0,0,0, ACENTRIF5.jpg ,NOKEY,0,NOKEY
AB2 ,AB,1,3,740,0,0,0,LTS0,0,0, Ahorn21.jpg ,NOKEY,0,NOKEY
AB2 ,AB,1,3,741,0,0,0,LTS0,0,0, clawhairclips.jpg ,NOKEY,0,NOKEY
AB2 ,AB,1,3,742,0,0,0,LTS0,0,0, Ajuicer27.jpg ,NOKEY,0,NOKEY
AB2 ,AB,1,3,743,0,0,0,LTS0,0,0, 26385058.thl.jpg ,NOKEY,0,NOKEY
AB2 ,AB,1,3,744,0,0,0,LTS0,0,0, Atoydoll12.jpg ,NOKEY,0,NOKEY
AB2 ,AB,1,3,745,0,0,0,LTS0,0,0, Aeggsandwich6.jpg ,NOKEY,0,NOKEY
AB2 ,AB,1,3,746,0,0,0,LTS0,0,0, hotgreenpepper.jpg ,NOKEY,0,NOKEY
AB2 ,AB,1,3,747,0,0,0,LTS0,0,0, licorice.jpg ,NOKEY,0,NOKEY
AB2 ,AB,1,3,748,0,0,0,LTS0,0,0, Astingray2.jpg ,NOKEY,0,NOKEY
AB2 ,AB,1,3,749,0,0,0,LTS0,0,0, Ababtoy13.jpg ,NOKEY,0,NOKEY
AB2 ,AB,1,3,750,0,0,0,LTS0,0,0, APUPPY26.jpg ,NOKEY,0,NOKEY
AB2 ,AB,1,3,751,0,0,0,LTS0,0,0, neckrest.jpg ,NOKEY,0,NOKEY
AB2 ,AB,1,3,752,0,0,0,LTS0,0,0, 26372690.thl.jpg ,NOKEY,0,NOKEY
AB2 ,AB,1,3,753,0,0,0,LTS0,0,0, ABEARIN28.jpg ,NOKEY,0,NOKEY
AB2 ,AB,1,3,754,1,1,1,LTS0,1350,1, ABEARIN28.jpg ,SPACE,1350,SPACE
AB2 ,AB,1,3,755,0,0,1,LTS0,1580,0, APARKBENC.jpg ,SPACE,1580,NOKEY
AB2 ,AB,1,3,756,0,0,0,LTS0,0,0, timemagazine.jpg ,NOKEY,0,NOKEY
AB2 ,AB,1,3,757,0,0,0,LTS0,0,0, ABREAD10.jpg ,NOKEY,0,NOKEY
AB2 ,AB,1,3,758,0,0,0,LTS0,0,0, ARUSH.jpg ,NOKEY,0,NOKEY
AB2 ,AB,1,3,759,0,0,0,LTS0,0,0, 8020414.thl.jpg ,NOKEY,0,NOKEY
AB2 ,AB,1,3,760,0,0,0,LTS0,0,0, 8080484.thl.jpg ,NOKEY,0,NOKEY
AB2 ,AB,1,3,761,0,0,1,LTS0,2700,0, AORITABLS.jpg ,SPACE,2700,NOKEY
AB2 ,AB,1,3,762,0,0,0,LTS0,0,0, 26372390.thl.jpg ,NOKEY,0,NOKEY
AB2 ,AB,1,3,764,0,0,0,LTS0,0,0, 23029830.thl.jpg ,NOKEY,0,NOKEY
AB2 ,AB,1,3,765,0,0,0,LTS0,0,0, makeupcrayon.jpg ,NOKEY,0,NOKEY
AB2 ,AB,1,3,766,0,0,0,LTS0,0,0, Atoyhelicopte.jpg ,NOKEY,0,NOKEY
AB2 ,AB,1,3,767,0,0,0,LTS0,0,0, 34936916.thl.jpg ,NOKEY,0,NOKEY
AB2 ,AB,1,3,768,0,0,0,LTS0,0,0, Areindeertoy4.jpg ,NOKEY,0,NOKEY
AB2 ,AB,1,3,769,0,0,0,LTS0,0,0, APIPE8.jpg ,NOKEY,0,NOKEY
AB2 ,AB,1,3,770,0,0,0,LTS0,0,0, 26428545.thl.jpg ,NOKEY,0,NOKEY
AB2 ,AB,1,3,771,0,0,0,LTS0,0,0, pretzel.jpg ,NOKEY,0,NOKEY
AB2 ,AB,1,3,772,0,0,0,LTS0,0,0, ASTRAINE8.jpg ,NOKEY,0,NOKEY
AB2 ,AB,1,3,773,0,0,0,LTS0,0,0, Aflower103.jpg ,NOKEY,0,NOKEY
AB2 ,AB,1,3,774,32,1,1,LTS0,1120,32, Ajuicer27.jpg ,SPACE,1120,SPACE
AB2 ,AB,1,3,775,0,0,0,LTS0,0,0, ABREASPU2.jpg ,NOKEY,0,NOKEY
AB2 ,AB,1,3,776,0,0,0,LTS0,0,0, 8256530.thl.jpg ,NOKEY,0,NOKEY
AB2 ,AB,1,3,777,0,0,0,LTS0,0,0, shield.jpg ,NOKEY,0,NOKEY
AB2 ,AB,1,3,778,0,0,0,LTS0,0,0, Acomputerkey2.jpg ,NOKEY,0,NOKEY
AB2 ,AB,1,3,779,0,0,0,LTS0,0,0, BattleStar.jpg ,NOKEY,0,NOKEY
AB2 ,AB,1,3,780,0,0,0,LTS0,0,0, AGLASSEY5.jpg ,NOKEY,0,NOKEY
AB2 ,AB,1,3,781,0,0,0,LTS0,0,0, AROCKET11.jpg ,NOKEY,0,NOKEY
AB2 ,AB,1,3,782,0,0,0,LTS0,0,0, 26434233.thl.jpg ,NOKEY,0,NOKEY
AB2 ,AB,1,3,783,4,1,1,LTS0,1100,4, BattleStar.jpg ,SPACE,1100,SPACE
AB2 ,AB,1,3,784,0,0,0,LTS0,0,0, ASWANWHIT.jpg ,NOKEY,0,NOKEY
AB2 ,AB,1,3,785,128,1,1,LTS0,1030,128, handcomputerN.JPG ,SPACE,1030,SPACE
AB2 ,AB,1,3,786,0,0,0,LTS0,0,0, 10053712.thm.jpg ,NOKEY,0,NOKEY
AB2 ,AB,1,3,787,0,0,0,LTS0,0,0, ATOYTREE.jpg ,NOKEY,0,NOKEY
AB2 ,AB,1,3,788,0,0,0,LTS0,0,0, caramel.jpg ,NOKEY,0,NOKEY
AB2 ,AB,1,3,789,0,0,0,LTS0,0,0, AMEATGR14.jpg ,NOKEY,0,NOKEY
AB2 ,AB,1,3,790,4,1,1,LTS0,1050,4, 10053712.thm.jpg ,SPACE,1050,SPACE
AB2 ,AB,1,3,791,0,0,0,LTS0,0,0, AWREATH9.jpg ,NOKEY,0,NOKEY
AB2 ,AB,1,3,792,0,0,0,LTS0,0,0, Alipstick3.jpg ,NOKEY,0,NOKEY
AB2 ,AB,1,3,793,0,0,0,LTS0,0,0, ATOASTOV2.jpg ,NOKEY,0,NOKEY
AB2 ,AB,1,3,794,0,0,0,LTS0,0,0, ADECOSPO4.jpg ,NOKEY,0,NOKEY
AB2 ,AB,1,3,795,0,0,0,LTS0,0,0, ATOOHOLDE.jpg ,NOKEY,0,NOKEY
AB2 ,AB,1,3,797,0,0,0,LTS0,0,0, pingpongtable.jpg ,NOKEY,0,NOKEY
AB2 ,AB,1,3,798,0,0,0,LTS0,0,0, xqx00017.jpg ,NOKEY,0,NOKEY
AB2 ,AB,1,3,799,32,1,1,LTS0,1070,32, 34936916.thl.jpg ,SPACE,1070,SPACE
AB2 ,AB,1,3,800,0,0,0,LTS0,0,0, ACHILDISH.jpg ,NOKEY,0,NOKEY
AB2 ,AB,1,3,801,0,0,0,LTS0,0,0, airbottle1.jpg ,NOKEY,0,NOKEY
AB2 ,AB,1,3,802,8,1,1,LTS0,1030,8, ADECOSPO4.jpg ,SPACE,1030,SPACE
AB2 ,AB,1,3,803,0,0,0,LTS0,0,0, AMILPANS2.jpg ,NOKEY,0,NOKEY
AB2 ,AB,1,3,804,0,0,0,LTS0,0,0, A_coin.jpg ,NOKEY,0,NOKEY
AB2 ,AB,1,3,805,8,1,1,LTS0,1010,8, pingpongtable.jpg ,SPACE,1010,SPACE
AB2 ,AB,1,3,806,0,0,0,LTS0,0,0, ABARPEAR.jpg ,NOKEY,0,NOKEY
AB2 ,AB,1,3,807,0,0,0,LTS0,0,0, AGARBAGE.jpg ,NOKEY,0,NOKEY
AB2 ,AB,1,3,808,0,0,0,LTS0,0,0, ACUSTMACH.jpg ,NOKEY,0,NOKEY
AB2 ,AB,1,3,809,0,0,0,LTS0,0,0, AHOSPBED.jpg ,NOKEY,0,NOKEY
AB2 ,AB,1,3,810,32,1,1,LTS0,1060,32, Acomputerkey2.jpg ,SPACE,1060,SPACE
AB2 ,AB,1,3,811,0,0,0,LTS0,0,0, ASTEAMER4.jpg ,NOKEY,0,NOKEY
AB2 ,AB,1,3,812,0,0,0,LTS0,0,0, E_statue.jpg ,NOKEY,0,NOKEY
AB2 ,AB,1,3,813,0,0,0,LTS0,0,0, ABALLOON5.jpg ,NOKEY,0,NOKEY
AB2 ,AB,1,3,814,0,0,0,LTS0,0,0, ADRUMSET3.jpg ,NOKEY,0,NOKEY
AB2 ,AB,1,3,815,0,0,0,LTS0,0,0, 26372846.thl.jpg ,NOKEY,0,NOKEY
AB2 ,AB,1,3,816,0,0,0,LTS0,0,0, ATELESCO2.jpg ,NOKEY,0,NOKEY
AB2 ,AB,1,3,817,0,0,0,LTS0,0,0, ACITROEN5.jpg ,NOKEY,0,NOKEY
AB2 ,AB,1,3,818,0,0,0,LTS0,0,0, Apowerbar7.jpg ,NOKEY,0,NOKEY
AB2 ,AB,1,3,819,0,0,0,LTS0,0,0, Astonehome.jpg ,NOKEY,0,NOKEY
AB2 ,AB,1,3,820,64,1,1,LTS0,1010,64, timemagazine.jpg ,SPACE,1010,SPACE
AB2 ,AB,1,3,821,0,0,0,LTS0,0,0, ABLACKB12.jpg ,NOKEY,0,NOKEY
AB2 ,AB,1,3,822,64,1,1,LTS0,990,64, ARUSH.jpg ,SPACE,990,SPACE
AB2 ,AB,1,3,823,0,0,0,LTS0,0,0, gun.jpg ,NOKEY,0,NOKEY
AB2 ,AB,1,3,824,0,0,0,LTS0,0,0, AAMBULAN7.jpg ,NOKEY,0,NOKEY
AB2 ,AB,1,3,825,0,0,0,LTS0,0,0, AICEUBETR.jpg ,NOKEY,0,NOKEY
AB2 ,AB,1,3,826,0,0,0,LTS0,0,0, AELECBE17.jpg ,NOKEY,0,NOKEY
AB2 ,AB,1,3,827,0,0,0,LTS0,0,0, ABABYSH33.jpg ,NOKEY,0,NOKEY
AB2 ,AB,1,3,828,0,0,0,LTS0,0,0, ABROWCONT.jpg ,NOKEY,0,NOKEY
AB2 ,AB,1,3,829,0,0,0,LTS0,0,0, D_golfcart.jpg ,NOKEY,0,NOKEY
AB2 ,AB,1,3,830,0,0,0,LTS0,0,0, ATOWER3.jpg ,NOKEY,0,NOKEY
AB2 ,AB,1,3,831,0,0,0,LTS0,0,0, 16247853.thl.jpg ,NOKEY,0,NOKEY
AB2 ,AB,1,3,832,0,0,0,LTS0,0,0, Acampingknife.jpg ,NOKEY,0,NOKEY
AB2 ,AB,1,3,833,0,0,0,LTS0,0,0, workbench.jpg ,NOKEY,0,NOKEY
AB2 ,AB,1,3,834,0,0,0,LTS0,0,0, ATEALANT8.jpg ,NOKEY,0,NOKEY
AB2 ,AB,1,3,835,0,0,0,LTS0,0,0, ATEARDROP.jpg ,NOKEY,0,NOKEY
AB2 ,AB,1,3,836,4,1,1,LTS0,1070,4, Acampingknife.jpg ,SPACE,1070,SPACE
AB2 ,AB,1,3,837,0,0,0,LTS0,0,0, Abasketofap52.jpg ,NOKEY,0,NOKEY
AB2 ,AB,1,3,838,0,0,0,LTS0,0,0, railroadblock.jpg ,NOKEY,0,NOKEY
AB2 ,AB,1,3,839,0,0,0,LTS0,0,0, Asquid2.jpg ,NOKEY,0,NOKEY
AB2 ,AB,1,3,840,0,0,0,LTS0,0,0, Acontrolpane2.jpg ,NOKEY,0,NOKEY
AB2 ,AB,1,3,841,0,0,0,LTS0,0,0, AFLUTE6.jpg ,NOKEY,0,NOKEY
AB2 ,AB,1,3,842,0,0,0,LTS0,0,0, hurdle.jpg ,NOKEY,0,NOKEY
AB2 ,AB,1,3,843,0,0,0,LTS0,0,0, Amousepad.jpg ,NOKEY,0,NOKEY
AB2 ,AB,1,3,844,0,0,0,LTS0,0,0, DSCN9735-sm.jpg ,NOKEY,0,NOKEY
AB2 ,AB,1,3,845,0,0,0,LTS0,0,0, Abutanco3.jpg ,NOKEY,0,NOKEY
AB2 ,AB,1,3,846,4,1,1,LTS0,1070,4, hurdle.jpg ,SPACE,1070,SPACE
AB2 ,AB,1,3,847,0,0,0,LTS0,0,0, 26420069.thl.jpg ,NOKEY,0,NOKEY
AB2 ,AB,1,3,848,0,0,0,LTS0,0,0, AKNIFEHOL.jpg ,NOKEY,0,NOKEY
AB2 ,AB,1,3,849,0,0,0,LTS0,0,0, Aceramicjug10.jpg ,NOKEY,0,NOKEY
AB2 ,AB,1,3,850,0,0,0,LTS0,0,0, Ainstrument3.jpg ,NOKEY,0,NOKEY
AB2 ,AB,1,3,851,0,0,0,LTS0,0,0, superman.jpg ,NOKEY,0,NOKEY
AB2 ,AB,1,3,852,0,0,0,LTS0,0,0, Adryflo15.jpg ,NOKEY,0,NOKEY
AB2 ,AB,1,3,853,0,0,0,LTS0,0,0, mickeycap.jpg ,NOKEY,0,NOKEY
AB2 ,AB,1,3,854,0,0,0,LTS0,0,0, 8076304.thl.jpg ,NOKEY,0,NOKEY
AB2 ,AB,1,3,855,0,0,0,LTS0,0,0, AANGLEME2.jpg ,NOKEY,0,NOKEY
AB2 ,AB,1,3,856,16,1,1,LTS0,980,16, Acontrolpane2.jpg ,SPACE,980,SPACE
AB2 ,AB,1,3,857,0,0,0,LTS0,0,0, Awaxlips.jpg ,NOKEY,0,NOKEY
AB2 ,AB,1,3,858,0,0,0,LTS0,0,0, 26373195.thl.jpg ,NOKEY,0,NOKEY
AB2 ,AB,1,3,859,0,0,1,LTS0,2460,0, ABAROMET2.jpg ,SPACE,2460,NOKEY
AB2 ,AB,1,3,860,0,0,0,LTS0,0,0, Afrog45.jpg ,NOKEY,0,NOKEY
AB2 ,AB,1,3,861,16,1,1,LTS0,1390,16_16-first, Abutanco3.jpg ,SPACE,1390,SPACE
AB2 ,AB,1,3,862,0,0,0,LTS0,0,0, 26423303.thl.jpg ,NOKEY,0,NOKEY
AB2 ,AB,1,3,863,32,1,1,LTS0,1640,32, 16247853.thl.jpg ,SPACE,1640,SPACE
AB2 ,AB,1,3,864,0,0,0,LTS0,0,0, Afueltank11.jpg ,NOKEY,0,NOKEY
AB2 ,AB,1,3,865,4,1,1,LTS0,1400,4_4-mul-0, Abutanco3.jpg ,SPACE,1400,SPACE
AB2 ,AB,1,3,866,0,0,0,LTS0,0,0, ASHOWCAP.jpg ,NOKEY,0,NOKEY
AB2 ,AB,1,3,868,0,0,0,LTS0,0,0, garlic.jpg ,NOKEY,0,NOKEY
AB2 ,AB,1,3,869,0,0,0,LTS0,0,0, 26420893.thl.jpg ,NOKEY,0,NOKEY
AB2 ,AB,1,4,870,0,0,0,LTS0,0,0, Abasket110.jpg ,NOKEY,0,NOKEY
AB2 ,AB,1,4,871,0,0,0,LTS0,0,0, ADIPPER6.jpg ,NOKEY,0,NOKEY
AB2 ,AB,1,4,872,0,0,0,LTS0,0,0, Acactus58.jpg ,NOKEY,0,NOKEY
AB2 ,AB,1,4,873,0,0,0,LTS0,0,0, 26425322.thl.jpg ,NOKEY,0,NOKEY
AB2 ,AB,1,4,874,0,0,0,LTS0,0,0, burrito.jpg ,NOKEY,0,NOKEY
AB2 ,AB,1,4,875,0,0,0,LTS0,0,0, AROCKET20.jpg ,NOKEY,0,NOKEY
AB2 ,AB,1,4,876,0,0,0,LTS0,0,0, ADINGHY.jpg ,NOKEY,0,NOKEY
AB2 ,AB,1,4,877,0,0,0,LTS0,0,0, AFranken4.jpg ,NOKEY,0,NOKEY
AB2 ,AB,1,4,878,0,0,0,LTS0,0,0, A25thdec3.jpg ,NOKEY,0,NOKEY
AB2 ,AB,1,4,879,0,0,0,LTS0,0,0, vendingmachine.jpg ,NOKEY,0,NOKEY
AB2 ,AB,1,4,880,0,0,0,LTS0,0,0, ADRIARRA2.jpg ,NOKEY,0,NOKEY
AB2 ,AB,1,4,881,0,0,0,LTS0,0,0, Aeastcho6.jpg ,NOKEY,0,NOKEY
AB2 ,AB,1,4,882,0,0,0,LTS0,0,0, bicycle1.jpg ,NOKEY,0,NOKEY
AB2 ,AB,1,4,883,0,0,0,LTS0,0,0, Atoyservices2.jpg ,NOKEY,0,NOKEY
AB2 ,AB,1,4,884,0,0,0,LTS0,0,0, moistureproduct.jpg ,NOKEY,0,NOKEY
AB2 ,AB,1,4,885,0,0,0,LTS0,0,0, 8245419.thl.jpg ,NOKEY,0,NOKEY
AB2 ,AB,1,4,886,0,0,0,LTS0,0,0, ATINSTRAP.jpg ,NOKEY,0,NOKEY
AB2 ,AB,1,4,887,0,0,0,LTS0,0,0, 8257273.thl.jpg ,NOKEY,0,NOKEY
AB2 ,AB,1,4,888,0,0,0,LTS0,0,0, ASECCAME3.jpg ,NOKEY,0,NOKEY
AB2 ,AB,1,4,889,0,0,0,LTS0,0,0, Aacupuncture2.jpg ,NOKEY,0,NOKEY
AB2 ,AB,1,4,890,0,0,0,LTS0,0,0, Abreadrolls.jpg ,NOKEY,0,NOKEY
AB2 ,AB,1,4,891,0,0,0,LTS0,0,0, ACOLOGNE.jpg ,NOKEY,0,NOKEY
AB2 ,AB,1,4,892,0,0,1,LTS0,2320,0, Apulley71.jpg ,SPACE,2320,NOKEY
AB2 ,AB,1,4,893,0,0,1,LTS0,1370,0, 8018499.thl.jpg ,SPACE,1370,NOKEY
AB2 ,AB,1,4,894,0,0,0,LTS0,0,0, ADUNEBUGG.jpg ,NOKEY,0,NOKEY
AB2 ,AB,1,4,895,0,0,0,LTS0,0,0, Athimble2.jpg ,NOKEY,0,NOKEY
AB2 ,AB,1,4,896,0,0,0,LTS0,0,0, Ahawk3.jpg ,NOKEY,0,NOKEY
AB2 ,AB,1,4,897,0,0,0,LTS0,0,0, APALLETT2.jpg ,NOKEY,0,NOKEY
AB2 ,AB,1,4,898,0,0,0,LTS0,0,0, Acautionroads.jpg ,NOKEY,0,NOKEY
AB2 ,AB,1,4,899,0,0,0,LTS0,0,0, 26372465.thl.jpg ,NOKEY,0,NOKEY
AB2 ,AB,1,4,900,0,0,0,LTS0,0,0, 26421357.thl.jpg ,NOKEY,0,NOKEY
AB2 ,AB,1,4,901,0,0,0,LTS0,0,0, Acaterpilla11.jpg ,NOKEY,0,NOKEY
AB2 ,AB,1,4,903,0,0,0,LTS0,0,0, Aclipboardpe4.jpg ,NOKEY,0,NOKEY
AB2 ,AB,1,4,904,0,0,0,LTS0,0,0, Acable14.jpg ,NOKEY,0,NOKEY
AB2 ,AB,1,4,905,0,0,0,LTS0,0,0, Acreamer35.jpg ,NOKEY,0,NOKEY
AB2 ,AB,1,4,906,0,0,0,LTS0,0,0, A1991CHE7.jpg ,NOKEY,0,NOKEY
AB2 ,AB,1,4,907,0,0,0,LTS0,0,0, AHOTPAD4.jpg ,NOKEY,0,NOKEY
AB2 ,AB,1,4,908,0,0,0,LTS0,0,0, Abedpan7.jpg ,NOKEY,0,NOKEY
AB2 ,AB,1,4,909,1,1,1,LTS0,910,1, Abedpan7.jpg ,SPACE,910,SPACE
AB2 ,AB,1,4,910,0,0,0,LTS0,0,0, Abackaccesso4.jpg ,NOKEY,0,NOKEY
AB2 ,AB,1,4,911,0,0,0,LTS0,0,0, ASALABOW4.jpg ,NOKEY,0,NOKEY
AB2 ,AB,1,4,912,0,0,0,LTS0,0,0, ABROOCH41.jpg ,NOKEY,0,NOKEY
AB2 ,AB,1,4,913,0,0,0,LTS0,0,0, 23007415.thl.jpg ,NOKEY,0,NOKEY
AB2 ,AB,1,4,914,0,0,0,LTS0,0,0, Acampingstov9.jpg ,NOKEY,0,NOKEY
AB2 ,AB,1,4,915,0,0,0,LTS0,0,0, Cupcake.jpg ,NOKEY,0,NOKEY
AB2 ,AB,1,4,916,0,0,0,LTS0,0,0, ACUPEANE2.jpg ,NOKEY,0,NOKEY
AB2 ,AB,1,4,917,0,0,0,LTS0,0,0, AHOSPWAS2.jpg ,NOKEY,0,NOKEY
AB2 ,AB,1,4,918,0,0,0,LTS0,0,0, AMANGO.jpg ,NOKEY,0,NOKEY
AB2 ,AB,1,4,919,0,0,0,LTS0,0,0, 26684827.thl.jpg ,NOKEY,0,NOKEY
AB2 ,AB,1,4,920,4,1,1,LTS0,1120,4_4-first, ACUPEANE2.jpg ,SPACE,1120,SPACE
AB2 ,AB,1,4,921,0,0,0,LTS0,0,0, Ablackma3.jpg ,NOKEY,0,NOKEY
AB2 ,AB,1,4,922,0,0,0,LTS0,0,0, ACOLFILT5.jpg ,NOKEY,0,NOKEY
AB2 ,AB,1,4,923,0,0,0,LTS0,0,0, ABAKECON3.jpg ,NOKEY,0,NOKEY
AB2 ,AB,1,4,924,0,0,0,LTS0,0,0, ATOILROL2.jpg ,NOKEY,0,NOKEY
AB2 ,AB,1,4,925,0,0,0,LTS0,0,0, ABREAD.jpg ,NOKEY,0,NOKEY
AB2 ,AB,1,4,926,128,1,1,LTS0,840,00-across0, xqx00017.jpg ,SPACE,840,SPACE
AB2 ,AB,1,4,927,0,0,0,LTS0,0,0, Avideocamera2.jpg ,NOKEY,0,NOKEY
AB2 ,AB,1,4,928,0,0,0,LTS0,0,0, Atent16.jpg ,NOKEY,0,NOKEY
AB2 ,AB,1,4,929,64,1,1,LTS0,970,64_64-mul-1, Abutanco3.jpg ,SPACE,970,SPACE
AB2 ,AB,1,4,930,0,0,0,LTS0,0,0, ABASGUITA.jpg ,NOKEY,0,NOKEY
AB2 ,AB,1,4,931,0,0,0,LTS0,0,0, erasergum.jpg ,NOKEY,0,NOKEY
AB2 ,AB,1,4,932,0,0,0,LTS0,0,0, AMETICUBE.jpg ,NOKEY,0,NOKEY
AB2 ,AB,1,4,933,0,0,0,LTS0,0,0, Abandage3.jpg ,NOKEY,0,NOKEY
AB2 ,AB,1,4,934,0,0,0,LTS0,0,0, AWISHWELL.jpg ,NOKEY,0,NOKEY
AB2 ,AB,1,4,935,0,0,0,LTS0,0,0, 8058011.thl.jpg ,NOKEY,0,NOKEY
AB2 ,AB,1,4,936,0,0,0,LTS0,0,0, Atelescope2.jpg ,NOKEY,0,NOKEY
AB2 ,AB,1,4,937,0,0,0,LTS0,0,0, Abasketofpepp.jpg ,NOKEY,0,NOKEY
AB2 ,AB,1,4,938,0,0,0,LTS0,0,0, Apenandcase10.jpg ,NOKEY,0,NOKEY
AB2 ,AB,1,4,939,0,0,0,LTS0,0,0, ABLACSUI3.jpg ,NOKEY,0,NOKEY
AB2 ,AB,1,4,940,0,0,0,LTS0,0,0, AARTPLANT.jpg ,NOKEY,0,NOKEY
AB2 ,AB,1,4,941,0,0,0,LTS0,0,0, Aelasticbands.jpg ,NOKEY,0,NOKEY
AB2 ,AB,1,4,942,0,0,0,LTS0,0,0, ABABYDOLL.jpg ,NOKEY,0,NOKEY
AB2 ,AB,1,4,943,0,0,0,LTS0,0,0, 26428041.thl.jpg ,NOKEY,0,NOKEY
AB2 ,AB,1,4,944,0,0,0,LTS0,0,0, 26442719.thl.jpg ,NOKEY,0,NOKEY
AB2 ,AB,1,4,945,2,1,1,LTS0,850,2, 26428041.thl.jpg ,SPACE,850,SPACE
AB2 ,AB,1,4,946,0,0,0,LTS0,0,0, 8079080.thl.jpg ,NOKEY,0,NOKEY
AB2 ,AB,1,4,947,0,0,0,LTS0,0,0, ACONSTRU9.jpg ,NOKEY,0,NOKEY
AB2 ,AB,1,4,948,0,0,0,LTS0,0,0, ADART3.jpg ,NOKEY,0,NOKEY
AB2 ,AB,1,4,949,0,0,0,LTS0,0,0, ATROWEL2.jpg ,NOKEY,0,NOKEY
AB2 ,AB,1,4,950,0,0,0,LTS0,0,0, AHEATER.jpg ,NOKEY,0,NOKEY
AB2 ,AB,1,4,951,0,0,0,LTS0,0,0, whitemalerobe.jpg ,NOKEY,0,NOKEY
AB2 ,AB,1,4,952,32,1,1,LTS0,790,32_32-mul-0, ACUPEANE2.jpg ,SPACE,790,SPACE
AB2 ,AB,1,4,953,0,0,0,LTS0,0,0, Agarbagecans3.jpg ,NOKEY,0,NOKEY
AB2 ,AB,1,4,954,0,0,0,LTS0,0,0, 8074514.thl.jpg ,NOKEY,0,NOKEY
AB2 ,AB,1,4,955,0,0,0,LTS0,0,0, Abriefcasecel.jpg ,NOKEY,0,NOKEY
AB2 ,AB,1,4,956,0,0,0,LTS0,0,0, APAGODAMO.jpg ,NOKEY,0,NOKEY
AB2 ,AB,1,4,957,0,0,0,LTS0,0,0, keys-a.jpg ,NOKEY,0,NOKEY
AB2 ,AB,1,4,958,0,0,0,LTS0,0,0, Ainflatablem6.jpg ,NOKEY,0,NOKEY
AB2 ,AB,1,4,959,0,0,0,LTS0,0,0, 26372669.thl.jpg ,NOKEY,0,NOKEY
AB2 ,AB,1,4,960,0,0,0,LTS0,0,0, ASMOKDE16.jpg ,NOKEY,0,NOKEY
AB2 ,AB,1,4,961,0,0,0,LTS0,0,0, Aconferencer3.jpg ,NOKEY,0,NOKEY
AB2 ,AB,1,4,962,0,0,0,LTS0,0,0, 10050122.thm.jpg ,NOKEY,0,NOKEY
AB2 ,AB,1,4,963,0,0,0,LTS0,0,0, Agrilledmeata.jpg ,NOKEY,0,NOKEY
AB2 ,AB,1,4,964,0,0,0,LTS0,0,0, ASPARKER2.jpg ,NOKEY,0,NOKEY
AB2 ,AB,1,4,965,0,0,0,LTS0,0,0, ADOUBHOOK.jpg ,NOKEY,0,NOKEY
AB2 ,AB,1,4,966,0,0,0,LTS0,0,0, Abutterchurn5.jpg ,NOKEY,0,NOKEY
AB2 ,AB,1,4,967,0,0,0,LTS0,0,0, AFORKLIF2.jpg ,NOKEY,0,NOKEY
AB2 ,AB,1,4,968,0,0,0,LTS0,0,0, Acalculator12.jpg ,NOKEY,0,NOKEY
AB2 ,AB,1,4,969,0,0,0,LTS0,0,0, ALIONMAS2.jpg ,NOKEY,0,NOKEY
AB2 ,AB,1,4,970,0,0,0,LTS0,0,0, 26391173.thl.jpg ,NOKEY,0,NOKEY
AB2 ,AB,1,4,971,0,0,0,LTS0,0,0, Arubberstampa.jpg ,NOKEY,0,NOKEY
AB2 ,AB,1,4,972,0,0,0,LTS0,0,0, Astackingtoy2.jpg ,NOKEY,0,NOKEY
AB2 ,AB,1,4,973,0,0,0,LTS0,0,0, ASTOOL.jpg ,NOKEY,0,NOKEY
AB2 ,AB,1,4,974,0,0,0,LTS0,0,0, Aflask19.jpg ,NOKEY,0,NOKEY
AB2 ,AB,1,4,975,0,0,0,LTS0,0,0, Achick9.jpg ,NOKEY,0,NOKEY
AB2 ,AB,1,4,976,0,0,0,LTS0,0,0, AEXECHAIR.jpg ,NOKEY,0,NOKEY
AB2 ,AB,1,4,977,0,0,0,LTS0,0,0, broccoli.jpg ,NOKEY,0,NOKEY
AB2 ,AB,1,4,979,0,0,0,LTS0,0,0, Ablackcamera4.jpg ,NOKEY,0,NOKEY
AB2 ,AB,1,4,980,0,0,0,LTS0,0,0, 8063317.thl.jpg ,NOKEY,0,NOKEY
AB2 ,AB,1,4,981,0,0,0,LTS0,0,0, D_stove.jpg ,NOKEY,0,NOKEY
AB2 ,AB,1,4,982,0,0,0,LTS0,0,0, 10050937.thl.jpg ,NOKEY,0,NOKEY
AB2 ,AB,1,4,983,0,0,0,LTS0,0,0, Abellows4.jpg ,NOKEY,0,NOKEY
AB2 ,AB,1,4,984,0,0,0,LTS0,0,0, APARKMET6.jpg ,NOKEY,0,NOKEY
AB2 ,AB,1,4,985,0,0,0,LTS0,0,0, 26421740.thl.jpg ,NOKEY,0,NOKEY
AB2 ,AB,1,4,986,0,0,0,LTS0,0,0, AANTOAST3.jpg ,NOKEY,0,NOKEY
AB2 ,AB,1,4,987,0,0,0,LTS0,0,0, 26424075.thl.jpg ,NOKEY,0,NOKEY
AB2 ,AB,1,4,988,0,0,0,LTS0,0,0, 26432173.thl.jpg ,NOKEY,0,NOKEY
AB2 ,AB,1,4,989,1,1,1,LTS0,1320,1, 26432173.thl.jpg ,SPACE,1320,SPACE
AB2 ,AB,1,4,990,0,0,0,LTS0,0,0, Abottle98.jpg ,NOKEY,0,NOKEY
AB2 ,AB,1,4,991,0,0,0,LTS0,0,0, AAPPCOVE2.jpg ,NOKEY,0,NOKEY
AB2 ,AB,1,4,992,0,0,0,LTS0,0,0, AARCH.jpg ,NOKEY,0,NOKEY
AB2 ,AB,1,4,993,8,1,1,LTS0,910,8, 26421740.thl.jpg ,SPACE,910,SPACE
AB2 ,AB,1,4,994,0,0,0,LTS0,0,0, AGIFTBAG3.jpg ,NOKEY,0,NOKEY
AB2 ,AB,1,4,995,0,0,0,LTS0,0,0, ABLAKBEN2.jpg ,NOKEY,0,NOKEY
AB2 ,AB,1,4,996,0,0,0,LTS0,0,0, Ahippopotamu4.jpg ,NOKEY,0,NOKEY
AB2 ,AB,1,4,997,0,0,0,LTS0,0,0, AGHOST.jpg ,NOKEY,0,NOKEY
AB2 ,AB,1,4,998,0,0,0,LTS0,0,0, corkscrew02.jpg ,NOKEY,0,NOKEY
AB2 ,AB,1,4,999,0,0,0,LTS0,0,0, A3bday5.jpg ,NOKEY,0,NOKEY
AB2 ,AB,1,4,1000,0,0,0,LTS0,0,0, 26443034.thl.jpg ,NOKEY,0,NOKEY
AB2 ,AB,1,4,1001,0,0,0,LTS0,0,0, Abell44.jpg ,NOKEY,0,NOKEY
AB2 ,AB,1,4,1002,128,1,1,LTS0,870,128, burrito.jpg ,SPACE,870,SPACE
AB2 ,AB,1,4,1003,0,0,0,LTS0,0,0, Afan49.jpg ,NOKEY,0,NOKEY
AB2 ,AB,1,4,1004,0,0,0,LTS0,0,0, BeautyNBeast.jpg ,NOKEY,0,NOKEY
AB2 ,AB,1,4,1005,0,0,0,LTS0,0,0, Ajewisho2.jpg ,NOKEY,0,NOKEY
AB2 ,AB,1,4,1006,0,0,0,LTS0,0,0, AICESKAT8.jpg ,NOKEY,0,NOKEY
AB2 ,AB,1,4,1007,0,0,0,LTS0,0,0, Ascientificm2.jpg ,NOKEY,0,NOKEY
AB2 ,AB,1,4,1008,0,0,0,LTS0,0,0, ASTAPLER.jpg ,NOKEY,0,NOKEY
AB2 ,AB,1,4,1009,0,0,0,LTS0,0,0, 26556936.thl.jpg ,NOKEY,0,NOKEY
AB2 ,AB,1,4,1010,0,0,0,LTS0,0,0, Aabacus.jpg ,NOKEY,0,NOKEY
AB2 ,AB,1,4,1011,0,0,0,LTS0,0,0, Apartyha3.jpg ,NOKEY,0,NOKEY
AB2 ,AB,1,4,1012,32,1,1,LTS0,880,32, 8063317.thl.jpg ,SPACE,880,SPACE
AB2 ,AB,1,4,1013,0,0,0,LTS0,0,0, Aapple32.jpg ,NOKEY,0,NOKEY
AB2 ,AB,1,4,1014,0,0,0,LTS0,0,0, batslcshi.jpg ,NOKEY,0,NOKEY
AB2 ,AB,1,4,1015,32,1,1,LTS0,1040,32, Abellows4.jpg ,SPACE,1040,SPACE
AB2 ,AB,1,4,1016,0,0,0,LTS0,0,0, Aparrot80.jpg ,NOKEY,0,NOKEY
AB2 ,AB,1,4,1017,0,0,0,LTS0,0,0, cowboywagon.jpg ,NOKEY,0,NOKEY
AB2 ,AB,1,4,1018,0,0,0,LTS0,0,0, ASWITCH6.jpg ,NOKEY,0,NOKEY
AB2 ,AB,1,4,1019,0,0,0,LTS0,0,0, Aradio24.jpg ,NOKEY,0,NOKEY
AB2 ,AB,1,4,1020,0,0,0,LTS0,0,0, Alampsanddes5.jpg ,NOKEY,0,NOKEY
AB2 ,AB,1,4,1021,0,0,0,LTS0,0,0, AWEIGHTS3.jpg ,NOKEY,0,NOKEY
AB2 ,AB,1,4,1022,32,1,1,LTS0,1130,32, Abottle98.jpg ,SPACE,1130,SPACE
AB2 ,AB,1,4,1023,0,0,0,LTS0,0,0, medievalknight.jpg ,NOKEY,0,NOKEY
AB2 ,AB,1,4,1024,0,0,0,LTS0,0,0, Atoothbrush3.jpg ,NOKEY,0,NOKEY
AB2 ,AB,1,4,1025,0,0,0,LTS0,0,0, AMANCLIP5.jpg ,NOKEY,0,NOKEY
AB2 ,AB,1,4,1026,0,0,0,LTS0,0,0, dftslturapr.jpg ,NOKEY,0,NOKEY
AB2 ,AB,1,4,1027,0,0,0,LTS0,0,0, AROUNDFR3.jpg ,NOKEY,0,NOKEY
AB2 ,AB,1,4,1028,0,0,0,LTS0,0,0, Abrickhomeand.jpg ,NOKEY,0,NOKEY
AB2 ,AB,1,4,1029,0,0,0,LTS0,0,0, pajamas.jpg ,NOKEY,0,NOKEY
AB2 ,AB,1,4,1030,0,0,0,LTS0,0,0, ATEETH7.jpg ,NOKEY,0,NOKEY
AB2 ,AB,1,4,1031,0,0,0,LTS0,0,0, AAFRICI13.jpg ,NOKEY,0,NOKEY
AB2 ,AB,1,4,1033,0,0,0,LTS0,0,0, APAPYRUS.jpg ,NOKEY,0,NOKEY
AB2 ,AB,1,4,1034,0,0,0,LTS0,0,0, 26377631.thl.jpg ,NOKEY,0,NOKEY
AB2 ,AB,1,4,1035,0,0,0,LTS0,0,0, A_teabag.jpg ,NOKEY,0,NOKEY
AB2 ,AB,1,4,1036,0,0,0,LTS0,0,0, 22856172.thl.jpg ,NOKEY,0,NOKEY
AB2 ,AB,1,4,1037,0,0,0,LTS0,0,0, AWIG10.jpg ,NOKEY,0,NOKEY
AB2 ,AB,1,4,1038,0,0,0,LTS0,0,0, Aantiqueche19.jpg ,NOKEY,0,NOKEY
AB2 ,AB,1,4,1039,0,0,0,LTS0,0,0, 26425788.thl.jpg ,NOKEY,0,NOKEY
AB2 ,AB,1,4,1041,0,0,0,LTS0,0,0, twofingersN.JPG ,NOKEY,0,NOKEY
AB2 ,AB,1,4,1042,0,0,0,LTS0,0,0, ACEILHOOK.jpg ,NOKEY,0,NOKEY
AB2 ,AB,1,4,1043,0,0,0,LTS0,0,0, ACHEEGRA3.jpg ,NOKEY,0,NOKEY
AB2 ,AB,1,4,1044,0,0,0,LTS0,0,0, Aflowerpot9.jpg ,NOKEY,0,NOKEY
AB2 ,AB,1,4,1045,0,0,0,LTS0,0,0, Aplasticbott3.jpg ,NOKEY,0,NOKEY
AB2 ,AB,1,4,1046,0,0,0,LTS0,0,0, 311-863-217.jpg ,NOKEY,0,NOKEY
AB2 ,AB,1,4,1047,0,0,0,LTS0,0,0, 26282693.thl.jpg ,NOKEY,0,NOKEY
AB2 ,AB,1,4,1048,0,0,0,LTS0,0,0, Achrisd25.jpg ,NOKEY,0,NOKEY
AB2 ,AB,1,4,1050,0,0,0,LTS0,0,0, Aclamp62.jpg ,NOKEY,0,NOKEY
AB2 ,AB,1,4,1051,0,0,0,LTS0,0,0, Ahourglass4.jpg ,NOKEY,0,NOKEY
AB2 ,AB,1,4,1052,0,0,0,LTS0,0,0, 35311992.thl.jpg ,NOKEY,0,NOKEY
AB2 ,AB,1,4,1053,2,1,1,LTS0,1280,2, Ahourglass4.jpg ,SPACE,1280,SPACE
AB2 ,AB,1,4,1054,0,0,0,LTS0,0,0, ACAMPSTOO.jpg ,NOKEY,0,NOKEY
AB2 ,AB,1,4,1055,0,0,0,LTS0,0,0, sandbox.jpg ,NOKEY,0,NOKEY
AB2 ,AB,1,4,1056,0,0,0,LTS0,0,0, cough_medicine.jpg ,NOKEY,0,NOKEY
AB2 ,AB,1,4,1057,0,0,0,LTS0,0,0, Acomputerdriv.jpg ,NOKEY,0,NOKEY
AB2 ,AB,1,4,1058,0,0,0,LTS0,0,0, AWOODST11.jpg ,NOKEY,0,NOKEY
AB2 ,AB,1,4,1059,0,0,0,LTS0,0,0, Aglassjarwit2.jpg ,NOKEY,0,NOKEY
AB2 ,AB,1,4,1060,0,0,0,LTS0,0,0, 22886412.thl.jpg ,NOKEY,0,NOKEY
AB2 ,AB,1,4,1061,0,0,0,LTS0,0,0, ALINENCA3.jpg ,NOKEY,0,NOKEY
AB2 ,AB,1,4,1062,2,1,1,LTS0,1110,2_2-first, 22886412.thl.jpg ,SPACE,1110,SPACE
AB2 ,AB,1,4,1063,0,0,0,LTS0,0,0, Ababydec4.jpg ,NOKEY,0,NOKEY
AB2 ,AB,1,4,1064,0,0,0,LTS0,0,0, ACHIPPER.jpg ,NOKEY,0,NOKEY
AB2 ,AB,1,4,1065,0,0,0,LTS0,0,0, AHEARTES3.jpg ,NOKEY,0,NOKEY
AB2 ,AB,1,4,1066,0,0,0,LTS0,0,0, AMUFFIPAN.jpg ,NOKEY,0,NOKEY
AB2 ,AB,1,4,1067,0,0,0,LTS0,0,0, AHOCKPLA7.jpg ,NOKEY,0,NOKEY
AB2 ,AB,1,4,1068,0,0,0,LTS0,0,0, APLANMOD.jpg ,NOKEY,0,NOKEY
AB2 ,AB,1,4,1069,4,1,1,LTS0,1130,4_4-first, AHEARTES3.jpg ,SPACE,1130,SPACE
AB2 ,AB,1,4,1070,0,0,0,LTS0,0,0, AWALKTA25.jpg ,NOKEY,0,NOKEY
AB2 ,AB,1,4,1071,0,0,0,LTS0,0,0, ASCREW24.jpg ,NOKEY,0,NOKEY
AB2 ,AB,1,4,1072,0,0,0,LTS0,0,0, pinecone02.jpg ,NOKEY,0,NOKEY
AB2 ,AB,1,4,1073,0,0,0,LTS0,0,0, Atoyfiretru11.jpg ,NOKEY,0,NOKEY
AB2 ,AB,1,4,1074,0,0,0,LTS0,0,0, 22825932.thl.jpg ,NOKEY,0,NOKEY
AB2 ,AB,1,4,1075,0,0,0,LTS0,0,0, AWALKMAN2.jpg ,NOKEY,0,NOKEY
AB2 ,AB,1,4,1076,0,0,0,LTS0,0,0, moneyslotmachine.jpg ,NOKEY,0,NOKEY
AB2 ,AB,1,4,1077,0,0,0,LTS0,0,0, A3leafcl4.jpg ,NOKEY,0,NOKEY
AB2 ,AB,1,4,1078,0,0,0,LTS0,0,0, AWHISBARR.jpg ,NOKEY,0,NOKEY
AB2 ,AB,1,4,1079,0,0,0,LTS0,0,0, 22866972.thl.jpg ,NOKEY,0,NOKEY
AB2 ,AB,1,4,1080,1,1,1,LTS0,1330,1, 22866972.thl.jpg ,SPACE,1330,SPACE
AB2 ,AB,1,4,1081,0,0,0,LTS0,0,0, Awomansshoe3.jpg ,NOKEY,0,NOKEY
AB2 ,AB,1,4,1082,0,0,0,LTS0,0,0, 26425573.thl.jpg ,NOKEY,0,NOKEY
AB2 ,AB,1,4,1083,1,1,1,LTS0,1050,1, 26425573.thl.jpg ,SPACE,1050,SPACE
AB2 ,AB,1,4,1084,0,0,0,LTS0,0,0, TTtvehiclesCyborg.jpg ,NOKEY,0,NOKEY
AB2 ,AB,1,4,1085,0,0,0,LTS0,0,0, 23025307.thl.jpg ,NOKEY,0,NOKEY
AB2 ,AB,1,4,1086,1,1,1,LTS0,930,1_1-first, 23025307.thl.jpg ,SPACE,930,SPACE
AB2 ,AB,1,4,1087,0,0,0,LTS0,0,0, AGRAINSI5.jpg ,NOKEY,0,NOKEY
AB2 ,AB,1,4,1088,0,0,0,LTS0,0,0, Abedspringsam.jpg ,NOKEY,0,NOKEY
AB2 ,AB,1,4,1089,0,0,0,LTS0,0,0, 26437028.thl.jpg ,NOKEY,0,NOKEY
AB2 ,AB,1,4,1090,64,1,1,LTS0,1030,64, dftslturapr.jpg ,SPACE,1030,SPACE
AB2 ,AB,1,4,1091,0,0,0,LTS0,0,0, AMILPHONE.jpg ,NOKEY,0,NOKEY
AB2 ,AB,1,4,1092,0,0,0,LTS0,0,0, chocolatepowder.jpg ,NOKEY,0,NOKEY
AB2 ,AB,1,4,1093,0,0,0,LTS0,0,0, 23065398.thl.jpg ,NOKEY,0,NOKEY
AB2 ,AB,1,4,1094,0,0,0,LTS0,0,0, AWHEELC14.jpg ,NOKEY,0,NOKEY
AB2 ,AB,1,4,1095,0,0,0,LTS0,0,0, Ascarf7.jpg ,NOKEY,0,NOKEY
AB2 ,AB,1,4,1096,0,0,0,LTS0,0,0, Alanter59.jpg ,NOKEY,0,NOKEY
AB2 ,AB,1,4,1097,0,0,0,LTS0,0,0, Abreastpump2.jpg ,NOKEY,0,NOKEY
AB2 ,AB,1,4,1099,0,0,0,LTS0,0,0, ARASPBER2.jpg ,NOKEY,0,NOKEY
AB2 ,AB,1,4,1100,0,0,0,LTS0,0,0, Abicyclekick2.jpg ,NOKEY,0,NOKEY
AB2 ,AB,1,4,1101,0,0,0,LTS0,0,0, Abunchofgrap2.jpg ,NOKEY,0,NOKEY
AB2 ,AB,1,4,1102,16,1,1,LTS0,950,16_16-mul-0, 23025307.thl.jpg ,SPACE,950,SPACE
AB2 ,AB,1,4,1103,0,0,0,LTS0,0,0, Ashovel8.jpg ,NOKEY,0,NOKEY
AB2 ,AB,1,4,1104,0,0,0,LTS0,0,0, AAIRBOWER.jpg ,NOKEY,0,NOKEY
AB2 ,AB,1,4,1105,0,0,0,LTS0,0,0, Acomputerpro3.jpg ,NOKEY,0,NOKEY
AB2 ,AB,1,4,1106,0,0,0,LTS0,0,0, AMINCOLLE.jpg ,NOKEY,0,NOKEY
AB2 ,AB,1,4,1107,2,1,1,LTS0,1070,2, Acomputerpro3.jpg ,SPACE,1070,SPACE
AB2 ,AB,1,4,1108,0,0,0,LTS0,0,0, ATRAFFIC3.jpg ,NOKEY,0,NOKEY
AB2 ,AB,1,4,1109,0,0,0,LTS0,0,0, ADECKCARD.jpg ,NOKEY,0,NOKEY
AB2 ,AB,1,4,1110,0,0,0,LTS0,0,0, Aframe196.jpg ,NOKEY,0,NOKEY
AB2 ,AB,1,4,1111,0,0,0,LTS0,0,0, Atoycoil.jpg ,NOKEY,0,NOKEY
AB2 ,AB,1,4,1112,0,0,0,LTS0,0,0, 26461413.thl.jpg ,NOKEY,0,NOKEY
AB2 ,AB,1,4,1113,0,0,0,LTS0,0,0, 26392651.thl.jpg ,NOKEY,0,NOKEY
AB2 ,AB,1,4,1114,0,0,0,LTS0,0,0, 26370116.thl.jpg ,NOKEY,0,NOKEY
AB2 ,AB,1,4,1115,0,0,0,LTS0,0,0, AMEAT2.jpg ,NOKEY,0,NOKEY
AB2 ,AB,1,4,1116,0,0,0,LTS0,0,0, Apeddleboat3.jpg ,NOKEY,0,NOKEY
AB2 ,AB,1,4,1117,8,1,1,LTS0,1040,8, ADECKCARD.jpg ,SPACE,1040,SPACE
AB2 ,AB,1,4,1118,0,0,0,LTS0,0,0, Atool120.jpg ,NOKEY,0,NOKEY
AB2 ,AB,1,4,1119,1,1,1,LTS0,900,1_1-first, Atool120.jpg ,SPACE,900,SPACE
AB2 ,AB,1,4,1120,0,0,0,LTS0,0,0, 8057434.thl.jpg ,NOKEY,0,NOKEY
AB2 ,AB,1,4,1121,0,0,0,LTS0,0,0, 26373735.thl.jpg ,NOKEY,0,NOKEY
AB2 ,AB,1,4,1122,0,0,0,LTS0,0,0, Afirstaiddol2.jpg ,NOKEY,0,NOKEY
AB2 ,AB,1,4,1123,0,0,0,LTS0,0,0, Achipmunk5.jpg ,NOKEY,0,NOKEY
AB2 ,AB,1,4,1124,0,0,0,LTS0,0,0, 22857084.thl.jpg ,NOKEY,0,NOKEY
AB2 ,AB,1,4,1125,32,1,1,LTS0,910,32, 23065398.thl.jpg ,SPACE,910,SPACE
AB2 ,AB,1,4,1126,0,0,0,LTS0,0,0, Ahalfchoc.jpg ,NOKEY,0,NOKEY
AB2 ,AB,1,4,1127,0,0,0,LTS0,0,0, AELEAGEN3.jpg ,NOKEY,0,NOKEY
AB2 ,AB,1,4,1128,0,0,0,LTS0,0,0, Atoycoffeepo2.jpg ,NOKEY,0,NOKEY
AB2 ,AB,1,4,1129,0,0,0,LTS0,0,0, ANAPDISPE.jpg ,NOKEY,0,NOKEY
AB2 ,AB,1,4,1130,0,0,0,LTS0,0,0, swingset.jpg ,NOKEY,0,NOKEY
AB2 ,AB,1,4,1131,4,1,1,LTS0,930,4, AELEAGEN3.jpg ,SPACE,930,SPACE
AB2 ,AB,1,4,1132,0,0,0,LTS0,0,0, Adill.jpg ,NOKEY,0,NOKEY
AB2 ,AB,1,4,1133,0,0,0,LTS0,0,0, ABIRDCAG2.jpg ,NOKEY,0,NOKEY
AB2 ,AB,1,4,1134,0,0,0,LTS0,0,0, Atelecommuni4.jpg ,NOKEY,0,NOKEY
AB2 ,AB,1,4,1135,16,1,1,LTS0,810,16_16-mul-0, Atool120.jpg ,SPACE,810,SPACE
AB2 ,AB,1,4,1136,0,0,0,LTS0,0,0, ALOVSEA10.jpg ,NOKEY,0,NOKEY
AB2 ,AB,1,4,1137,0,0,0,LTS0,0,0, Astrawberryde.jpg ,NOKEY,0,NOKEY
AB2 ,AB,1,4,1138,1,1,1,LTS0,650,1, Astrawberryde.jpg ,SPACE,650,SPACE
AB2 ,AB,1,4,1139,0,0,0,LTS0,0,0, AGUIRO.jpg ,NOKEY,0,NOKEY
AB2 ,AB,1,4,1140,0,0,0,LTS0,0,0, AHEBREWTE.jpg ,NOKEY,0,NOKEY
AB2 ,AB,1,4,1141,0,0,0,LTS0,0,0, AFIREPLAC.jpg ,NOKEY,0,NOKEY
AB2 ,AB,1,4,1142,0,0,0,LTS0,0,0, Aballofyarn49.jpg ,NOKEY,0,NOKEY
AB2 ,AB,1,4,1143,0,0,0,LTS0,0,0, Abeermug11.jpg ,NOKEY,0,NOKEY
AB2 ,AB,1,4,1144,0,0,0,LTS0,0,0, surfboard.JPG ,NOKEY,0,NOKEY
AB2 ,AB,1,4,1145,64,1,1,LTS0,1010,64, Awomansshoe3.jpg ,SPACE,1010,SPACE
AB2 ,AB,1,4,1146,0,0,0,LTS0,0,0, Athermosand12.jpg ,NOKEY,0,NOKEY
AB2 ,AB,1,4,1147,0,0,0,LTS0,0,0, ABLAKPOT3.jpg ,NOKEY,0,NOKEY
AB2 ,AB,1,4,1148,0,0,0,LTS0,0,0, satellitedirecttc.jpg ,NOKEY,0,NOKEY
AB2 ,AB,1,4,1149,0,0,0,LTS0,0,0, 22924880.thl.jpg ,NOKEY,0,NOKEY
AB2 ,AB,1,4,1150,0,0,0,LTS0,0,0, Ajuicer9.jpg ,NOKEY,0,NOKEY
AB2 ,AB,1,4,1151,0,0,0,LTS0,0,0, AANTIDRES.jpg ,NOKEY,0,NOKEY
AB2 ,AB,1,4,1152,0,0,0,LTS0,0,0, 26427906.thl.jpg ,NOKEY,0,NOKEY
AB2 ,AB,1,4,1153,0,0,0,LTS0,0,0, hulahoop.jpg ,NOKEY,0,NOKEY
AB2 ,AB,1,4,1154,0,0,0,LTS0,0,0, 26370704.thl.jpg ,NOKEY,0,NOKEY
AB2 ,AB,1,4,1155,0,0,0,LTS0,0,0, Awindow19.jpg ,NOKEY,0,NOKEY
AB2 ,AB,1,4,1156,0,0,0,LTS0,0,0, 26374709.thl.jpg ,NOKEY,0,NOKEY
AB2 ,AB,1,4,1157,0,0,0,LTS0,0,0, Aclamp42.jpg ,NOKEY,0,NOKEY
AB2 ,AB,1,4,1158,0,0,0,LTS0,0,0, 8054039.thl.jpg ,NOKEY,0,NOKEY
AB2 ,AB,1,4,1159,0,0,0,LTS0,0,0, 22826448.thl.jpg ,NOKEY,0,NOKEY
AB2 ,AB,1,5,1160,0,0,0,LTS0,0,0, AHOSPLIF2.jpg ,NOKEY,0,NOKEY
AB2 ,AB,1,5,1161,64,1,1,LTS0,990,00-across0, Abreastpump2.jpg ,SPACE,990,SPACE
AB2 ,AB,1,5,1162,0,0,0,LTS0,0,0, snowflake.jpg ,NOKEY,0,NOKEY
AB2 ,AB,1,5,1163,0,0,0,LTS0,0,0, Aextensionco8.jpg ,NOKEY,0,NOKEY
AB2 ,AB,1,5,1164,0,0,0,LTS0,0,0, 26376454.thl.jpg ,NOKEY,0,NOKEY
AB2 ,AB,1,5,1165,0,0,0,LTS0,0,0, 26433849.thl.jpg ,NOKEY,0,NOKEY
AB2 ,AB,1,5,1166,0,0,0,LTS0,0,0, Aflower102.jpg ,NOKEY,0,NOKEY
AB2 ,AB,1,5,1167,128,1,1,LTS0,2000,00-across0, 26425788.thl.jpg ,SPACE,2000,SPACE
AB2 ,AB,1,5,1168,0,0,0,LTS0,0,0, 10049257.thl.jpg ,NOKEY,0,NOKEY
AB2 ,AB,1,5,1169,0,0,0,LTS0,0,0, AHALLOWE3.jpg ,NOKEY,0,NOKEY
AB2 ,AB,1,5,1170,64,1,1,LTS0,1130,64_64-first, AMINCOLLE.jpg ,SPACE,1130,SPACE
AB2 ,AB,1,5,1171,0,0,1,LTS0,1090,0, Abinocularca3.jpg ,SPACE,1090,NOKEY
AB2 ,AB,1,5,1172,0,0,0,LTS0,0,0, ASMOKMEAT.jpg ,NOKEY,0,NOKEY
AB2 ,AB,1,5,1173,0,0,0,LTS0,0,0, AHANDRAK.jpg ,NOKEY,0,NOKEY
AB2 ,AB,1,5,1174,0,0,0,LTS0,0,0, 26437068.thl.jpg ,NOKEY,0,NOKEY
AB2 ,AB,1,5,1175,0,0,0,LTS0,0,0, Aslate.jpg ,NOKEY,0,NOKEY
AB2 ,AB,1,5,1176,0,0,0,LTS0,0,0, Atombstone17.jpg ,NOKEY,0,NOKEY
AB2 ,AB,1,5,1177,0,0,0,LTS0,0,0, Agratedchees2.jpg ,NOKEY,0,NOKEY
AB2 ,AB,1,5,1178,0,0,0,LTS0,0,0, 26425025.thl.jpg ,NOKEY,0,NOKEY
AB2 ,AB,1,5,1179,0,0,0,LTS0,0,0, Apokerchips3.jpg ,NOKEY,0,NOKEY
AB2 ,AB,1,5,1180,0,0,0,LTS0,0,0, Aantelope2.jpg ,NOKEY,0,NOKEY
AB2 ,AB,1,5,1181,0,0,0,LTS0,0,0, ACOWBELL6.jpg ,NOKEY,0,NOKEY
AB2 ,AB,1,5,1182,0,0,0,LTS0,0,0, AHEDGEHOG.jpg ,NOKEY,0,NOKEY
AB2 ,AB,1,5,1183,0,0,0,LTS0,0,0, headcomb1.jpg ,NOKEY,0,NOKEY
AB2 ,AB,1,5,1184,0,0,0,LTS0,0,0, ABATHTAP.jpg ,NOKEY,0,NOKEY
AB2 ,AB,1,5,1185,0,0,0,LTS0,0,0, ATOQUE4.jpg ,NOKEY,0,NOKEY
AB2 ,AB,1,5,1186,0,0,0,LTS0,0,0, Amouthpiece4.jpg ,NOKEY,0,NOKEY
AB2 ,AB,1,5,1187,0,0,0,LTS0,0,0, 26687944.thl.jpg ,NOKEY,0,NOKEY
AB2 ,AB,1,5,1188,0,0,0,LTS0,0,0, frog-a.jpg ,NOKEY,0,NOKEY
AB2 ,AB,1,5,1189,0,0,0,LTS0,0,0, 10053213.thm.jpg ,NOKEY,0,NOKEY
AB2 ,AB,1,5,1190,0,0,0,LTS0,0,0, Afruitbasket2.jpg ,NOKEY,0,NOKEY
AB2 ,AB,1,5,1191,0,0,0,LTS0,0,0, 26423873.thl.jpg ,NOKEY,0,NOKEY
AB2 ,AB,1,5,1192,0,0,0,LTS0,0,0, gondola.jpg ,NOKEY,0,NOKEY
AB2 ,AB,1,5,1193,128,1,1,LTS0,1030,128_124-mul-0, AHEARTES3.jpg ,SPACE,1030,SPACE
AB2 ,AB,1,5,1194,0,0,0,LTS0,0,0, Acandle109.jpg ,NOKEY,0,NOKEY
AB2 ,AB,1,5,1195,0,0,0,LTS0,0,0, biblebar.jpg ,NOKEY,0,NOKEY
AB2 ,AB,1,5,1196,0,0,0,LTS0,0,0, ASHAKER2.jpg ,NOKEY,0,NOKEY
AB2 ,AB,1,5,1197,1,1,1,LTS0,830,1, ASHAKER2.jpg ,SPACE,830,SPACE
AB2 ,AB,1,5,1198,0,0,0,LTS0,0,0, AARTBERRI.jpg ,NOKEY,0,NOKEY
AB2 ,AB,1,5,1199,0,0,0,LTS0,0,0, AAIRPORTC.jpg ,NOKEY,0,NOKEY
AB2 ,AB,1,5,1201,0,0,0,LTS0,0,0, ASTENORA2.jpg ,NOKEY,0,NOKEY
AB2 ,AB,1,5,1202,0,0,0,LTS0,0,0, Abinoculars5.jpg ,NOKEY,0,NOKEY
AB2 ,AB,1,5,1203,0,0,0,LTS0,0,0, Awatch53.jpg ,NOKEY,0,NOKEY
AB2 ,AB,1,5,1204,0,0,0,LTS0,0,0, Abasketandch2.jpg ,NOKEY,0,NOKEY
AB2 ,AB,1,5,1205,0,0,0,LTS0,0,0, Abat5.jpg ,NOKEY,0,NOKEY
AB2 ,AB,1,5,1206,0,0,0,LTS0,0,0, Atoypanda.jpg ,NOKEY,0,NOKEY
AB2 ,AB,1,5,1207,0,0,0,LTS0,0,0, fortune-cookie.jpg ,NOKEY,0,NOKEY
AB2 ,AB,1,5,1208,0,0,0,LTS0,0,0, Agarlicclove2.jpg ,NOKEY,0,NOKEY
AB2 ,AB,1,5,1209,0,0,0,LTS0,0,0, Adecorativem2.jpg ,NOKEY,0,NOKEY
AB2 ,AB,1,5,1210,0,0,0,LTS0,0,0, AMOSQAMBE.jpg ,NOKEY,0,NOKEY
AB2 ,AB,1,5,1211,0,0,0,LTS0,0,0, ASHADES11.jpg ,NOKEY,0,NOKEY
AB2 ,AB,1,5,1212,0,0,0,LTS0,0,0, 31023139.thl.jpg ,NOKEY,0,NOKEY
AB2 ,AB,1,5,1213,4,1,1,LTS0,1030,4, Adecorativem2.jpg ,SPACE,1030,SPACE
AB2 ,AB,1,5,1214,0,0,0,LTS0,0,0, ABLOODCEA.jpg ,NOKEY,0,NOKEY
AB2 ,AB,1,5,1215,0,0,0,LTS0,0,0, tricycle.jpg ,NOKEY,0,NOKEY
AB2 ,AB,1,5,1216,0,0,0,LTS0,0,0, Amirror63.jpg ,NOKEY,0,NOKEY
AB2 ,AB,1,5,1217,0,0,0,LTS0,0,0, ASKIHOLD.jpg ,NOKEY,0,NOKEY
AB2 ,AB,1,5,1218,0,0,0,LTS0,0,0, Apatiota4.jpg ,NOKEY,0,NOKEY
AB2 ,AB,1,5,1219,0,0,0,LTS0,0,0, Afuse11.jpg ,NOKEY,0,NOKEY
AB2 ,AB,1,5,1220,0,0,0,LTS0,0,0, APICKLE.jpg ,NOKEY,0,NOKEY
AB2 ,AB,1,5,1221,0,0,0,LTS0,0,0, 26687176.thl.jpg ,NOKEY,0,NOKEY
AB2 ,AB,1,5,1222,32,1,1,LTS0,1070,32, Afruitbasket2.jpg ,SPACE,1070,SPACE
AB2 ,AB,1,5,1223,0,0,0,LTS0,0,0, ATHERMO4.jpg ,NOKEY,0,NOKEY
AB2 ,AB,1,5,1224,4,1,1,LTS0,970,4, APICKLE.jpg ,SPACE,970,SPACE
AB2 ,AB,1,5,1225,0,0,0,LTS0,0,0, 8023888.thl.jpg ,NOKEY,0,NOKEY
AB2 ,AB,1,5,1226,0,0,0,LTS0,0,0, Aantiqueches6.jpg ,NOKEY,0,NOKEY
AB2 ,AB,1,5,1227,0,0,0,LTS0,0,0, Aclamp58.jpg ,NOKEY,0,NOKEY
AB2 ,AB,1,5,1228,0,0,0,LTS0,0,0, Abeverage11.jpg ,NOKEY,0,NOKEY
AB2 ,AB,1,5,1229,0,0,0,LTS0,0,0, ADOGFOOD.jpg ,NOKEY,0,NOKEY
AB2 ,AB,1,5,1230,2,1,1,LTS0,1020,2, Abeverage11.jpg ,SPACE,1020,SPACE
AB2 ,AB,1,5,1231,0,0,0,LTS0,0,0, Alogholder.jpg ,NOKEY,0,NOKEY
AB2 ,AB,1,5,1232,0,0,0,LTS0,0,0, Askirt2.jpg ,NOKEY,0,NOKEY
AB2 ,AB,1,5,1233,0,0,0,LTS0,0,0, Astampandseal.jpg ,NOKEY,0,NOKEY
AB2 ,AB,1,5,1234,64,1,1,LTS0,1040,64_64-mul-0, AMINCOLLE.jpg ,SPACE,1040,SPACE
AB2 ,AB,1,5,1235,0,0,0,LTS0,0,0, A_computerkey.jpg ,NOKEY,0,NOKEY
AB2 ,AB,1,5,1236,0,0,0,LTS0,0,0, Atoypersonwi2.jpg ,NOKEY,0,NOKEY
AB2 ,AB,1,5,1237,0,0,0,LTS0,0,0, ADOCKPOST.jpg ,NOKEY,0,NOKEY
AB2 ,AB,1,5,1238,0,0,0,LTS0,0,0, 26384863.thl.jpg ,NOKEY,0,NOKEY
AB2 ,AB,1,5,1239,0,0,0,LTS0,0,0, ABULLMASK.jpg ,NOKEY,0,NOKEY
AB2 ,AB,1,5,1240,0,0,0,LTS0,0,0, spongtoy.jpg ,NOKEY,0,NOKEY
AB2 ,AB,1,5,1241,0,0,0,LTS0,0,0, Akiddcup2.jpg ,NOKEY,0,NOKEY
AB2 ,AB,1,5,1242,0,0,1,LTS0,1360,0, ACOLUMN5.jpg ,SPACE,1360,NOKEY
AB2 ,AB,1,5,1243,0,0,0,LTS0,0,0, Adropper2.jpg ,NOKEY,0,NOKEY
AB2 ,AB,1,5,1244,0,0,0,LTS0,0,0, pinkhoodie.jpg ,NOKEY,0,NOKEY
AB2 ,AB,1,5,1245,0,0,0,LTS0,0,0, Ametalhousin4.jpg ,NOKEY,0,NOKEY
AB2 ,AB,1,5,1246,0,0,0,LTS0,0,0, AELECTHE4.jpg ,NOKEY,0,NOKEY
AB2 ,AB,1,5,1247,0,0,0,LTS0,0,0, ASHAMPO2.jpg ,NOKEY,0,NOKEY
AB2 ,AB,1,5,1248,8,1,1,LTS0,1340,8, spongtoy.jpg ,SPACE,1340,SPACE
AB2 ,AB,1,5,1249,0,0,0,LTS0,0,0, ABULDOZER.jpg ,NOKEY,0,NOKEY
AB2 ,AB,1,5,1250,0,0,0,LTS0,0,0, kimono.JPG ,NOKEY,0,NOKEY
AB2 ,AB,1,5,1251,0,0,0,LTS0,0,0, ABUGLE2.jpg ,NOKEY,0,NOKEY
AB2 ,AB,1,5,1252,0,0,0,LTS0,0,0, Atoybird10.jpg ,NOKEY,0,NOKEY
AB2 ,AB,1,5,1253,0,0,0,LTS0,0,0, ABROTHSIS.jpg ,NOKEY,0,NOKEY
AB2 ,AB,1,5,1254,0,0,0,LTS0,0,0, Agardeningrak.jpg ,NOKEY,0,NOKEY
AB2 ,AB,1,5,1255,4,1,1,LTS0,780,4, ABUGLE2.jpg ,SPACE,780,SPACE
AB2 ,AB,1,5,1256,0,0,0,LTS0,0,0, Atoyswing.jpg ,NOKEY,0,NOKEY
AB2 ,AB,1,5,1257,0,0,0,LTS0,0,0, ASALINES5.jpg ,NOKEY,0,NOKEY
AB2 ,AB,1,5,1258,0,0,0,LTS0,0,0, redcabbagecut.jpg ,NOKEY,0,NOKEY
AB2 ,AB,1,5,1259,16,1,1,LTS0,1000,16, Adropper2.jpg ,SPACE,1000,SPACE
AB2 ,AB,1,5,1260,0,0,0,LTS0,0,0, petfood.jpg ,NOKEY,0,NOKEY
AB2 ,AB,1,5,1261,0,0,0,LTS0,0,0, ACOMB11.jpg ,NOKEY,0,NOKEY
AB2 ,AB,1,5,1262,8,1,1,LTS0,1110,8, Agardeningrak.jpg ,SPACE,1110,SPACE
AB2 ,AB,1,5,1263,0,0,0,LTS0,0,0, Aemergencyki5.jpg ,NOKEY,0,NOKEY
AB2 ,AB,1,5,1264,0,0,0,LTS0,0,0, tires.jpg ,NOKEY,0,NOKEY
AB2 ,AB,1,5,1265,0,0,0,LTS0,0,0, ALAMP.jpg ,NOKEY,0,NOKEY
AB2 ,AB,1,5,1266,0,0,0,LTS0,0,0, 22876872.thl.jpg ,NOKEY,0,NOKEY
AB2 ,AB,1,5,1267,0,0,0,LTS0,0,0, pic9.jpg ,NOKEY,0,NOKEY
AB2 ,AB,1,5,1268,0,0,0,LTS0,0,0, Ahumidifier.jpg ,NOKEY,0,NOKEY
AB2 ,AB,1,5,1269,0,0,0,LTS0,0,0, Atoytractor17.jpg ,NOKEY,0,NOKEY
AB2 ,AB,1,5,1270,0,0,0,LTS0,0,0, 26394018.thl.jpg ,NOKEY,0,NOKEY
AB2 ,AB,1,5,1271,0,0,0,LTS0,0,0, AMEATGRI9.jpg ,NOKEY,0,NOKEY
AB2 ,AB,1,5,1272,128,1,0,LTS0,0,00-across0, surfboard.JPG ,NOKEY,0,SPACE
AB2 ,AB,1,5,1273,0,0,0,LTS0,0,0, APOTPBAG2.jpg ,NOKEY,0,NOKEY
AB2 ,AB,1,5,1274,1,1,1,LTS0,750,1, APOTPBAG2.jpg ,SPACE,750,SPACE
AB2 ,AB,1,5,1275,0,0,0,LTS0,0,0, Abisontoy.jpg ,NOKEY,0,NOKEY
AB2 ,AB,1,5,1276,0,0,0,LTS0,0,0, 26429123.thl.jpg ,NOKEY,0,NOKEY
AB2 ,AB,1,5,1277,0,0,0,LTS0,0,0, Acrib12.jpg ,NOKEY,0,NOKEY
AB2 ,AB,1,5,1278,0,0,0,LTS0,0,0, AWILDPIG.jpg ,NOKEY,0,NOKEY
AB2 ,AB,1,5,1279,0,0,0,LTS0,0,0, AGARDHOSE.jpg ,NOKEY,0,NOKEY
AB2 ,AB,1,5,1280,0,0,0,LTS0,0,0, AJUICER.jpg ,NOKEY,0,NOKEY
AB2 ,AB,1,5,1281,0,0,0,LTS0,0,0, Abaleofhay.jpg ,NOKEY,0,NOKEY
AB2 ,AB,1,5,1282,32,1,1,LTS0,1040,32, kimono.JPG ,SPACE,1040,SPACE
AB2 ,AB,1,5,1283,0,0,0,LTS0,0,0, 8252024.thl.jpg ,NOKEY,0,NOKEY
AB2 ,AB,1,5,1284,0,0,0,LTS0,0,0, Aglass58.jpg ,NOKEY,0,NOKEY
AB2 ,AB,1,5,1285,0,0,0,LTS0,0,0, 22883664.thl.jpg ,NOKEY,0,NOKEY
AB2 ,AB,1,5,1286,0,0,0,LTS0,0,0, AACCORD12.jpg ,NOKEY,0,NOKEY
AB2 ,AB,1,5,1287,0,0,0,LTS0,0,0, QD-HEad.jpg ,NOKEY,0,NOKEY
AB2 ,AB,1,5,1288,0,0,0,LTS0,0,0, AAIRGRIN2.jpg ,NOKEY,0,NOKEY
AB2 ,AB,1,5,1289,0,0,0,LTS0,0,0, AANTIQTHE.jpg ,NOKEY,0,NOKEY
AB2 ,AB,1,5,1290,0,0,0,LTS0,0,0, AANTCASH3.jpg ,NOKEY,0,NOKEY
AB2 ,AB,1,5,1291,0,0,0,LTS0,0,0, cannoli.jpg ,NOKEY,0,NOKEY
AB2 ,AB,1,5,1292,0,0,0,LTS0,0,0, AARTDUCK3.jpg ,NOKEY,0,NOKEY
AB2 ,AB,1,5,1293,0,0,0,LTS0,0,0, AREDBEAN5.jpg ,NOKEY,0,NOKEY
AB2 ,AB,1,5,1294,0,0,0,LTS0,0,0, 26427903.thl.jpg ,NOKEY,0,NOKEY
AB2 ,AB,1,5,1295,8,1,1,LTS0,1110,8, QD-HEad.jpg ,SPACE,1110,SPACE
AB2 ,AB,1,5,1296,0,0,0,LTS0,0,0, Acane116.jpg ,NOKEY,0,NOKEY
AB2 ,AB,1,5,1297,128,1,1,LTS0,1050,128, AHALLOWE3.jpg ,SPACE,1050,SPACE
AB2 ,AB,1,5,1298,0,0,0,LTS0,0,0, Arazor23.jpg ,NOKEY,0,NOKEY
AB2 ,AB,1,5,1299,0,0,0,LTS0,0,0, Agluegun.jpg ,NOKEY,0,NOKEY
AB2 ,AB,1,5,1300,0,0,0,LTS0,0,0, babytoyA.JPG ,NOKEY,0,NOKEY
AB2 ,AB,1,5,1301,0,0,0,LTS0,0,0, AFRYPAN7.jpg ,NOKEY,0,NOKEY
AB2 ,AB,1,5,1302,0,0,0,LTS0,0,0, APEPPSHA4.jpg ,NOKEY,0,NOKEY
AB2 ,AB,1,5,1303,2,1,1,LTS0,960,2, AFRYPAN7.jpg ,SPACE,960,SPACE
AB2 ,AB,1,5,1304,0,0,0,LTS0,0,0, ABOOK23.jpg ,NOKEY,0,NOKEY
AB2 ,AB,1,5,1305,0,0,0,LTS0,0,0, AHEATER3.jpg ,NOKEY,0,NOKEY
AB2 ,AB,1,5,1306,0,0,0,LTS0,0,0, AWOODBIN.jpg ,NOKEY,0,NOKEY
AB2 ,AB,1,5,1307,0,0,1,LTS0,1160,0, Anoisma32.jpg ,SPACE,1160,NOKEY
AB2 ,AB,1,5,1308,1,1,1,LTS0,1650,1, Anoisma32.jpg ,SPACE,1650,SPACE
AB2 ,AB,1,5,1309,0,0,0,LTS0,0,0, Asign6.jpg ,NOKEY,0,NOKEY
AB2 ,AB,1,5,1310,0,0,0,LTS0,0,0, Abreakpl2.jpg ,NOKEY,0,NOKEY
AB2 ,AB,1,5,1312,0,0,0,LTS0,0,0, ACOUPLEF2.jpg ,NOKEY,0,NOKEY
AB2 ,AB,1,5,1313,0,0,0,LTS0,0,0, sphinx.jpg ,NOKEY,0,NOKEY
AB2 ,AB,1,5,1314,0,0,0,LTS0,0,0, 26375896.thl.jpg ,NOKEY,0,NOKEY
AB2 ,AB,1,5,1315,0,0,0,LTS0,0,0, baseball.JPG ,NOKEY,0,NOKEY
AB2 ,AB,1,5,1316,64,1,1,LTS0,1100,64, Atoybird10.jpg ,SPACE,1100,SPACE
AB2 ,AB,1,5,1317,0,0,0,LTS0,0,0, 23014831.thl.jpg ,NOKEY,0,NOKEY
AB2 ,AB,1,5,1318,0,0,0,LTS0,0,0, waterbottleA.JPG ,NOKEY,0,NOKEY
AB2 ,AB,1,5,1319,0,0,0,LTS0,0,0, Acombination6.jpg ,NOKEY,0,NOKEY
AB2 ,AB,1,5,1320,0,0,0,LTS0,0,0, Atotemp10.jpg ,NOKEY,0,NOKEY
AB2 ,AB,1,5,1321,2,1,1,LTS0,1280,2, Acombination6.jpg ,SPACE,1280,SPACE
AB2 ,AB,1,5,1322,0,0,0,LTS0,0,0, Awaffleiron7.jpg ,NOKEY,0,NOKEY
AB2 ,AB,1,5,1324,0,0,0,LTS0,0,0, AOVENMIT5.jpg ,NOKEY,0,NOKEY
AB2 ,AB,1,5,1325,16,1,1,LTS0,980,16, Asign6.jpg ,SPACE,980,SPACE
AB2 ,AB,1,5,1326,0,0,0,LTS0,0,0, Atool12.jpg ,NOKEY,0,NOKEY
AB2 ,AB,1,5,1327,0,0,0,LTS0,0,0, AWOODPIN.jpg ,NOKEY,0,NOKEY
AB2 ,AB,1,5,1328,0,0,0,LTS0,0,0, Ablossom.jpg ,NOKEY,0,NOKEY
AB2 ,AB,1,5,1329,0,0,0,LTS0,0,0, AKNEEHAMR.jpg ,NOKEY,0,NOKEY
AB2 ,AB,1,5,1330,0,0,0,LTS0,0,0, 26373271.thl.jpg ,NOKEY,0,NOKEY
AB2 ,AB,1,5,1331,0,0,0,LTS0,0,0, AHANDLE5.jpg ,NOKEY,0,NOKEY
AB2 ,AB,1,5,1332,0,0,0,LTS0,0,0, 26377183.thl.jpg ,NOKEY,0,NOKEY
AB2 ,AB,1,5,1333,1,1,1,LTS0,1050,1, 26377183.thl.jpg ,SPACE,1050,SPACE
AB2 ,AB,1,5,1334,0,0,0,LTS0,0,0, APILL.jpg ,NOKEY,0,NOKEY
AB2 ,AB,1,5,1335,0,0,0,LTS0,0,0, carseat.jpg ,NOKEY,0,NOKEY
AB2 ,AB,1,5,1336,16,1,1,LTS0,950,16, Atotemp10.jpg ,SPACE,950,SPACE
AB2 ,AB,1,5,1337,0,0,0,LTS0,0,0, gumballmachine.jpg ,NOKEY,0,NOKEY
AB2 ,AB,1,5,1338,0,0,0,LTS0,0,0, AELECRAZ7.jpg ,NOKEY,0,NOKEY
AB2 ,AB,1,5,1339,16,1,1,LTS0,890,16_16-mul-0, AHOCKPLA7.jpg ,SPACE,890,SPACE
AB2 ,AB,1,5,1340,0,0,0,LTS0,0,0, 26421583.thl.jpg ,NOKEY,0,NOKEY
AB2 ,AB,1,5,1341,1,1,1,LTS0,900,1, 26421583.thl.jpg ,SPACE,900,SPACE
AB2 ,AB,1,5,1342,0,0,0,LTS0,0,0, Abeaver.jpg ,NOKEY,0,NOKEY
AB2 ,AB,1,5,1343,0,0,0,LTS0,0,0, ABUILDAR4.jpg ,NOKEY,0,NOKEY
AB2 ,AB,1,5,1344,0,0,0,LTS0,0,0, ipod01.jpg ,NOKEY,0,NOKEY
AB2 ,AB,1,5,1346,0,0,0,LTS0,0,0, ASCSIPORT.jpg ,NOKEY,0,NOKEY
AB2 ,AB,1,5,1347,0,0,0,LTS0,0,0, Afirstaidkit3.jpg ,NOKEY,0,NOKEY
AB2 ,AB,1,5,1348,0,0,0,LTS0,0,0, Asword138.jpg ,NOKEY,0,NOKEY
AB2 ,AB,1,5,1349,64,1,1,LTS0,1020,64_64-first, 22883664.thl.jpg ,SPACE,1020,SPACE
AB2 ,AB,1,5,1350,0,0,0,LTS0,0,0, nintendo.jpg ,NOKEY,0,NOKEY
AB2 ,AB,1,5,1351,0,0,0,LTS0,0,0, jumpmattress.jpg ,NOKEY,0,NOKEY
AB2 ,AB,1,5,1352,0,0,0,LTS0,0,0, 22827276.thl.jpg ,NOKEY,0,NOKEY
AB2 ,AB,1,5,1354,0,0,0,LTS0,0,0, 26444138.thl.jpg ,NOKEY,0,NOKEY
AB2 ,AB,1,5,1355,0,0,0,LTS0,0,0, AEXIT7.jpg ,NOKEY,0,NOKEY
AB2 ,AB,1,5,1356,0,0,0,LTS0,0,0, ACEREAL.jpg ,NOKEY,0,NOKEY
AB2 ,AB,1,5,1357,0,0,0,LTS0,0,0, Adresser11.jpg ,NOKEY,0,NOKEY
AB2 ,AB,1,5,1358,0,0,0,LTS0,0,0, Aceramicjug16.jpg ,NOKEY,0,NOKEY
AB2 ,AB,1,5,1359,0,0,0,LTS0,0,0, Afootbp11.jpg ,NOKEY,0,NOKEY
AB2 ,AB,1,5,1360,0,0,0,LTS0,0,0, Atrafficsign2.jpg ,NOKEY,0,NOKEY
AB2 ,AB,1,5,1361,0,0,0,LTS0,0,0, ASLIDVIE2.jpg ,NOKEY,0,NOKEY
AB2 ,AB,1,5,1363,0,0,0,LTS0,0,0, ACEDAR.jpg ,NOKEY,0,NOKEY
AB2 ,AB,1,5,1364,0,0,0,LTS0,0,0, rollerblades.jpg ,NOKEY,0,NOKEY
AB2 ,AB,1,5,1365,8,1,1,LTS0,1020,8, Adresser11.jpg ,SPACE,1020,SPACE
AB2 ,AB,1,5,1366,0,0,0,LTS0,0,0, toiletA.JPG ,NOKEY,0,NOKEY
AB2 ,AB,1,5,1367,0,0,0,LTS0,0,0, ADICE.jpg ,NOKEY,0,NOKEY
AB2 ,AB,1,5,1368,0,0,0,LTS0,0,0, Aindustrialve.jpg ,NOKEY,0,NOKEY
AB2 ,AB,1,5,1369,0,0,0,LTS0,0,0, clips-a.jpg ,NOKEY,0,NOKEY
AB2 ,AB,1,5,1370,0,0,0,LTS0,0,0, Apencilsharp5.jpg ,NOKEY,0,NOKEY
AB2 ,AB,1,5,1371,8,1,1,LTS0,990,8, ACEDAR.jpg ,SPACE,990,SPACE
AB2 ,AB,1,5,1372,0,0,0,LTS0,0,0, Apilldispens3.jpg ,NOKEY,0,NOKEY
AB2 ,AB,1,5,1373,0,0,0,LTS0,0,0, 26686595.thl.jpg ,NOKEY,0,NOKEY
AB2 ,AB,1,5,1374,0,0,0,LTS0,0,0, ACHINLAMP.jpg ,NOKEY,0,NOKEY
AB2 ,AB,1,5,1375,0,0,0,LTS0,0,0, dvdmovie.jpg ,NOKEY,0,NOKEY
AB2 ,AB,1,5,1376,0,0,0,LTS0,0,0, Achair1260.jpg ,NOKEY,0,NOKEY
AB2 ,AB,1,5,1377,16,1,1,LTS0,1110,16, ASLIDVIE2.jpg ,SPACE,1110,SPACE
AB2 ,AB,1,5,1378,0,0,0,LTS0,0,0, 26383637.thl.jpg ,NOKEY,0,NOKEY
AB2 ,AB,1,5,1379,0,0,0,LTS0,0,0, Ablanket2.jpg ,NOKEY,0,NOKEY
AB2 ,AB,1,5,1380,0,0,0,LTS0,0,0, ATRUNK15.jpg ,NOKEY,0,NOKEY
AB2 ,AB,1,5,1381,32,1,1,LTS0,1060,32_32-mul-0, 22883664.thl.jpg ,SPACE,1060,SPACE
AB2 ,AB,1,5,1382,0,0,0,LTS0,0,0, Acheesgra.jpg ,NOKEY,0,NOKEY
AB2 ,AB,1,5,1383,0,0,0,LTS0,0,0, 26432148.thl.jpg ,NOKEY,0,NOKEY
AB2 ,AB,1,5,1385,0,0,0,LTS0,0,0, 23063814.thl.jpg ,NOKEY,0,NOKEY
AB2 ,AB,1,5,1386,0,0,0,LTS0,0,0, ABELT3.jpg ,NOKEY,0,NOKEY
AB2 ,AB,1,5,1387,0,0,0,LTS0,0,0, Abells3.jpg ,NOKEY,0,NOKEY
AB2 ,AB,1,5,1388,0,0,0,LTS0,0,0, 8021822.thl.jpg ,NOKEY,0,NOKEY
AB2 ,AB,1,5,1389,0,0,0,LTS0,0,0, legoblocks.jpg ,NOKEY,0,NOKEY
AB2 ,AB,1,5,1390,0,0,0,LTS0,0,0, driedbananaslides.jpg ,NOKEY,0,NOKEY
AB2 ,AB,1,5,1391,0,0,0,LTS0,0,0, ATOWRACK3.jpg ,NOKEY,0,NOKEY
AB2 ,AB,1,5,1392,0,0,0,LTS0,0,0, greenbeans.jpg ,NOKEY,0,NOKEY
AB2 ,AB,1,5,1393,0,0,0,LTS0,0,0, ABONGO3.jpg ,NOKEY,0,NOKEY
AB2 ,AB,1,5,1394,0,0,0,LTS0,0,0, AMODELSA4.jpg ,NOKEY,0,NOKEY
AB2 ,AB,1,5,1395,0,0,0,LTS0,0,0, Acookiecutte3.jpg ,NOKEY,0,NOKEY
AB2 ,AB,1,5,1396,0,0,0,LTS0,0,0, Acarvedpumpk2.jpg ,NOKEY,0,NOKEY
AB2 ,AB,1,5,1398,0,0,0,LTS0,0,0, Aflowerwreat2.jpg ,NOKEY,0,NOKEY
AB2 ,AB,1,5,1399,0,0,0,LTS0,0,0, Ahotdogplain.jpg ,NOKEY,0,NOKEY
AB2 ,AB,1,5,1400,0,0,0,LTS0,0,0, ALOAFBR4.jpg ,NOKEY,0,NOKEY
AB2 ,AB,1,5,1401,16,1,1,LTS0,1020,16, 23063814.thl.jpg ,SPACE,1020,SPACE
AB2 ,AB,1,5,1402,0,0,0,LTS0,0,0, Aglobe18.jpg ,NOKEY,0,NOKEY
AB2 ,AB,1,5,1403,0,0,0,LTS0,0,0, Agreenplastic.jpg ,NOKEY,0,NOKEY
AB2 ,AB,1,5,1404,0,0,0,LTS0,0,0, drumsticks01.jpg ,NOKEY,0,NOKEY
AB2 ,AB,1,5,1405,0,0,0,LTS0,0,0, Acompass18.jpg ,NOKEY,0,NOKEY
AB2 ,AB,1,5,1406,0,0,0,LTS0,0,0, AWASHPART.jpg ,NOKEY,0,NOKEY
AB2 ,AB,1,5,1407,0,0,0,LTS0,0,0, Aham6.jpg ,NOKEY,0,NOKEY
AB2 ,AB,1,5,1409,0,0,0,LTS0,0,0, hulk.jpg ,NOKEY,0,NOKEY
AB2 ,AB,1,5,1410,0,0,0,LTS0,0,0, Akitchensinka.jpg ,NOKEY,0,NOKEY
AB2 ,AB,1,5,1411,2,1,1,LTS0,990,2_2-first, hulk.jpg ,SPACE,990,SPACE
AB2 ,AB,1,5,1412,0,0,0,LTS0,0,0, ASPOTLIG2.jpg ,NOKEY,0,NOKEY
AB2 ,AB,1,5,1413,2,1,1,LTS0,1140,2_2-mul-0, hulk.jpg ,SPACE,1140,SPACE
AB2 ,AB,1,5,1414,0,0,0,LTS0,0,0, Acandlesnuffe.jpg ,NOKEY,0,NOKEY
AB2 ,AB,1,5,1415,0,0,0,LTS0,0,0, Afruitcake.jpg ,NOKEY,0,NOKEY
AB2 ,AB,1,5,1416,0,0,0,LTS0,0,0, ALINTREMO.jpg ,NOKEY,0,NOKEY
AB2 ,AB,1,5,1417,0,0,0,LTS0,0,0, barbwirecoil.jpg ,NOKEY,0,NOKEY
AB2 ,AB,1,5,1418,0,0,0,LTS0,0,0, AGRILL1.jpg ,NOKEY,0,NOKEY
AB2 ,AB,1,5,1419,0,0,0,LTS0,0,0, APOGO4.jpg ,NOKEY,0,NOKEY
AB2 ,AB,1,5,1420,0,0,0,LTS0,0,0, locomotive.jpg ,NOKEY,0,NOKEY
AB2 ,AB,1,5,1421,32,1,1,LTS0,1130,32, legoblocks.jpg ,SPACE,1130,SPACE
AB2 ,AB,1,5,1422,0,0,0,LTS0,0,0, AFULVOUST.jpg ,NOKEY,0,NOKEY
AB2 ,AB,1,5,1423,0,0,0,LTS0,0,0, Aboardgame6.jpg ,NOKEY,0,NOKEY
AB2 ,AB,1,5,1424,0,0,0,LTS0,0,0, AFEATHE22.jpg ,NOKEY,0,NOKEY
AB2 ,AB,1,5,1425,0,0,0,LTS0,0,0, Amonkey5.jpg ,NOKEY,0,NOKEY
AB2 ,AB,1,5,1426,0,0,0,LTS0,0,0, AGRILL3.jpg ,NOKEY,0,NOKEY
AB2 ,AB,1,5,1427,0,0,0,LTS0,0,0, Atintelephone.jpg ,NOKEY,0,NOKEY
AB2 ,AB,1,5,1428,0,0,0,LTS0,0,0, 26432760.thl.jpg ,NOKEY,0,NOKEY
AB2 ,AB,1,5,1429,32,1,1,LTS0,970,32_32-mul-0, saltpeppershakerjpg.jpg ,SPACE,970,SPACE
AB2 ,AB,1,5,1430,0,0,0,LTS0,0,0, ADRUM18.jpg ,NOKEY,0,NOKEY
AB2 ,AB,1,5,1431,0,0,0,LTS0,0,0, ACOWBOYH3.jpg ,NOKEY,0,NOKEY
AB2 ,AB,1,5,1432,0,0,0,LTS0,0,0, ABARROWRE.jpg ,NOKEY,0,NOKEY
AB2 ,AB,1,5,1433,0,0,0,LTS0,0,0, 8256618.thl.jpg ,NOKEY,0,NOKEY
AB2 ,AB,1,5,1434,0,0,0,LTS0,0,0, 22907432.thl.jpg ,NOKEY,0,NOKEY
AB2 ,AB,1,5,1435,0,0,0,LTS0,0,0, Atoyhorse2.jpg ,NOKEY,0,NOKEY
AB2 ,AB,1,5,1436,0,0,0,LTS0,0,0, Afrenchsigns2.jpg ,NOKEY,0,NOKEY
AB2 ,AB,1,5,1437,0,0,0,LTS0,0,0, 22903148.thl.jpg ,NOKEY,0,NOKEY
AB2 ,AB,1,5,1438,0,0,0,LTS0,0,0, asparagus.jpg ,NOKEY,0,NOKEY
AB2 ,AB,1,5,1439,0,0,0,LTS0,0,0, 26374089.thl.jpg ,NOKEY,0,NOKEY
AB2 ,AB,1,5,1440,128,1,1,LTS0,1050,128, ACOUPLEF2.jpg ,SPACE,1050,SPACE
AB2 ,AB,1,5,1441,0,0,0,LTS0,0,0, ACEROBJ5.jpg ,NOKEY,0,NOKEY
AB2 ,AB,1,5,1442,0,0,0,LTS0,0,0, 23026459.thl.jpg ,NOKEY,0,NOKEY
AB2 ,AB,1,5,1443,0,0,0,LTS0,0,0, cbgdidc.jpg ,NOKEY,0,NOKEY
AB2 ,AB,1,5,1444,0,0,0,LTS0,0,0, AANTSTO12.jpg ,NOKEY,0,NOKEY
AB2 ,AB,1,5,1445,0,0,0,LTS0,0,0, Acartofgroce3.jpg ,NOKEY,0,NOKEY
AB2 ,AB,1,5,1446,0,0,0,LTS0,0,0, 26387641.thl.jpg ,NOKEY,0,NOKEY
AB2 ,AB,1,5,1447,0,0,0,LTS0,0,0, Amistingwate3.jpg ,NOKEY,0,NOKEY
AB2 ,AB,1,5,1448,0,0,0,LTS0,0,0, Aelephant9.jpg ,NOKEY,0,NOKEY
AB2 ,AB,1,5,1449,0,0,0,LTS0,0,0, AMIRRORT2.jpg ,NOKEY,0,NOKEY
AB2 ,AB,1,6,1450,0,0,0,LTS0,0,0, 22911908.thl.jpg ,NOKEY,0,NOKEY
AB2 ,AB,1,6,1451,0,0,0,LTS0,0,0, ALAB19.jpg ,NOKEY,0,NOKEY
AB2 ,AB,1,6,1452,0,0,0,LTS0,0,0, 26421382.thl.jpg ,NOKEY,0,NOKEY
AB2 ,AB,1,6,1453,0,0,0,LTS0,0,0, 26554880.thl.jpg ,NOKEY,0,NOKEY
AB2 ,AB,1,6,1454,0,0,0,LTS0,0,0, 26425112.thl.jpg ,NOKEY,0,NOKEY
AB2 ,AB,1,6,1455,0,0,1,LTS0,1950,0, 26685596.thl.jpg ,SPACE,1950,NOKEY
AB2 ,AB,1,6,1456,0,0,0,LTS0,0,0, Ashark7.jpg ,NOKEY,0,NOKEY
AB2 ,AB,1,6,1457,0,0,0,LTS0,0,0, fork-a.jpg ,NOKEY,0,NOKEY
AB2 ,AB,1,6,1458,2,1,1,LTS0,1250,2, Ashark7.jpg ,SPACE,1250,SPACE
AB2 ,AB,1,6,1459,0,0,0,LTS0,0,0, Ahumansku101.jpg ,NOKEY,0,NOKEY
AB2 ,AB,1,6,1460,0,0,0,LTS0,0,0, AOTOSCOP5.jpg ,NOKEY,0,NOKEY
AB2 ,AB,1,6,1461,0,0,0,LTS0,0,0, 8249141.thl.jpg ,NOKEY,0,NOKEY
AB2 ,AB,1,6,1462,0,0,0,LTS0,0,0, Aammonitefo14.jpg ,NOKEY,0,NOKEY
AB2 ,AB,1,6,1463,0,0,0,LTS0,0,0, ACOCKSPA4.jpg ,NOKEY,0,NOKEY
AB2 ,AB,1,6,1464,0,0,0,LTS0,0,0, AHEADLIG9.jpg ,NOKEY,0,NOKEY
AB2 ,AB,1,6,1465,32,1,1,LTS0,960,32_32-first, 8256618.thl.jpg ,SPACE,960,SPACE
AB2 ,AB,1,6,1466,0,0,0,LTS0,0,0, AANTMILK.jpg ,NOKEY,0,NOKEY
AB2 ,AB,1,6,1467,0,0,0,LTS0,0,0, AMAGTABL3.jpg ,NOKEY,0,NOKEY
AB2 ,AB,1,6,1468,0,0,0,LTS0,0,0, ADENTOOL.jpg ,NOKEY,0,NOKEY
AB2 ,AB,1,6,1469,0,0,0,LTS0,0,0, Alei23.jpg ,NOKEY,0,NOKEY
AB2 ,AB,1,6,1470,0,0,0,LTS0,0,0, Aclock261.jpg ,NOKEY,0,NOKEY
AB2 ,AB,1,6,1471,0,0,0,LTS0,0,0, AFISHHOO9.jpg ,NOKEY,0,NOKEY
AB2 ,AB,1,6,1473,0,0,0,LTS0,0,0, AHOSPCRI3.jpg ,NOKEY,0,NOKEY
AB2 ,AB,1,6,1474,0,0,0,LTS0,0,0, ringbox03.jpg ,NOKEY,0,NOKEY
AB2 ,AB,1,6,1475,0,0,0,LTS0,0,0, Aoutdoorrece2.jpg ,NOKEY,0,NOKEY
AB2 ,AB,1,6,1476,0,0,0,LTS0,0,0, AWALKER11.jpg ,NOKEY,0,NOKEY
AB2 ,AB,1,6,1477,0,0,0,LTS0,0,0, ACOATHA44.jpg ,NOKEY,0,NOKEY
AB2 ,AB,1,6,1478,0,0,0,LTS0,0,0, 26424784.thl.jpg ,NOKEY,0,NOKEY
AB2 ,AB,1,6,1479,0,0,0,LTS0,0,0, 22908308.thl.jpg ,NOKEY,0,NOKEY
AB2 ,AB,1,6,1480,0,0,0,LTS0,0,0, AWOODBOX3.jpg ,NOKEY,0,NOKEY
AB2 ,AB,1,6,1481,16,1,1,LTS0,1190,16_16-mul-0, 8256618.thl.jpg ,SPACE,1190,SPACE
AB2 ,AB,1,6,1482,0,0,0,LTS0,0,0, Aplastichousi.jpg ,NOKEY,0,NOKEY
AB2 ,AB,1,6,1483,0,0,0,LTS0,0,0, 26466347.thl.jpg ,NOKEY,0,NOKEY
AB2 ,AB,1,6,1484,0,0,0,LTS0,0,0, 26465824.thl.jpg ,NOKEY,0,NOKEY
AB2 ,AB,1,6,1485,0,0,0,LTS0,0,0, Aexercisemac4.jpg ,NOKEY,0,NOKEY
AB2 ,AB,1,6,1486,0,0,0,LTS0,0,0, Acentipede4.jpg ,NOKEY,0,NOKEY
AB2 ,AB,1,6,1487,0,0,0,LTS0,0,0, AHYPBOTT.jpg ,NOKEY,0,NOKEY
AB2 ,AB,1,6,1488,0,0,0,LTS0,0,0, ALITTERB2.jpg ,NOKEY,0,NOKEY
AB2 ,AB,1,6,1489,1,1,1,LTS0,1210,1, ALITTERB2.jpg ,SPACE,1210,SPACE
AB2 ,AB,1,6,1490,0,0,0,LTS0,0,0, oldbookA.JPG ,NOKEY,0,NOKEY
AB2 ,AB,1,6,1491,32,1,1,LTS0,790,32, Ahumansku101.jpg ,SPACE,790,SPACE
AB2 ,AB,1,6,1492,0,0,0,LTS0,0,0, 26424440.thl.jpg ,NOKEY,0,NOKEY
AB2 ,AB,1,6,1493,0,0,0,LTS0,0,0, Astrawfan.jpg ,NOKEY,0,NOKEY
AB2 ,AB,1,6,1494,0,0,0,LTS0,0,0, AWALLEYE2.jpg ,NOKEY,0,NOKEY
AB2 ,AB,1,6,1495,0,0,0,LTS0,0,0, AALARMSY5.jpg ,NOKEY,0,NOKEY
AB2 ,AB,1,6,1496,0,0,0,LTS0,0,0, ACOFGRIN2.jpg ,NOKEY,0,NOKEY
AB2 ,AB,1,6,1497,0,0,0,LTS0,0,0, 26424443.thl.jpg ,NOKEY,0,NOKEY
AB2 ,AB,1,6,1498,0,0,0,LTS0,0,0, ACOFFPOT3.jpg ,NOKEY,0,NOKEY
AB2 ,AB,1,6,1499,0,0,0,LTS0,0,0, AHUBBLE.jpg ,NOKEY,0,NOKEY
AB2 ,AB,1,6,1500,0,0,0,LTS0,0,0, 22910996.thl.jpg ,NOKEY,0,NOKEY
AB2 ,AB,1,6,1502,0,0,0,LTS0,0,0, frtslpamix.jpg ,NOKEY,0,NOKEY
AB2 ,AB,1,6,1503,0,0,0,LTS0,0,0, Azebratoy2.jpg ,NOKEY,0,NOKEY
AB2 ,AB,1,6,1505,0,0,0,LTS0,0,0, AAIRPRES4.jpg ,NOKEY,0,NOKEY
AB2 ,AB,1,6,1506,0,0,0,LTS0,0,0, ALIGHTE17.jpg ,NOKEY,0,NOKEY
AB2 ,AB,1,6,1507,0,0,0,LTS0,0,0, Aberries5.jpg ,NOKEY,0,NOKEY
AB2 ,AB,1,6,1508,0,0,0,LTS0,0,0, Atoybucketan4.jpg ,NOKEY,0,NOKEY
AB2 ,AB,1,6,1509,0,0,0,LTS0,0,0, 26685948.thl.jpg ,NOKEY,0,NOKEY
AB2 ,AB,1,6,1510,0,0,0,LTS0,0,0, ABABYSPOO.jpg ,NOKEY,0,NOKEY
AB2 ,AB,1,6,1511,0,0,0,LTS0,0,0, AANSHIEL4.jpg ,NOKEY,0,NOKEY
AB2 ,AB,1,6,1512,0,0,0,LTS0,0,0, APILLS9.jpg ,NOKEY,0,NOKEY
AB2 ,AB,1,6,1513,8,1,1,LTS0,1140,8, AAIRPRES4.jpg ,SPACE,1140,SPACE
AB2 ,AB,1,6,1514,0,0,0,LTS0,0,0, 10049464.thl.jpg ,NOKEY,0,NOKEY
AB2 ,AB,1,6,1515,0,0,0,LTS0,0,0, Aflashlight3.jpg ,NOKEY,0,NOKEY
AB2 ,AB,1,6,1516,0,0,0,LTS0,0,0, Aicecrusher2.jpg ,NOKEY,0,NOKEY
AB2 ,AB,1,6,1517,0,0,0,LTS0,0,0, waterfilter.jpg ,NOKEY,0,NOKEY
AB2 ,AB,1,6,1518,0,0,0,LTS0,0,0, 8021515.thl.jpg ,NOKEY,0,NOKEY
AB2 ,AB,1,6,1519,0,0,0,LTS0,0,0, Ascarf3.jpg ,NOKEY,0,NOKEY
AB2 ,AB,1,6,1520,0,0,0,LTS0,0,0, 26466353.thl.jpg ,NOKEY,0,NOKEY
AB2 ,AB,1,6,1521,0,0,0,LTS0,0,0, securitycamera.jpg ,NOKEY,0,NOKEY
AB2 ,AB,1,6,1522,0,0,0,LTS0,0,0, Acablelatch.jpg ,NOKEY,0,NOKEY
AB2 ,AB,1,6,1524,0,0,0,LTS0,0,0, ACAROUSE2.jpg ,NOKEY,0,NOKEY
AB2 ,AB,1,6,1525,0,0,0,LTS0,0,0, AANKEY7.jpg ,NOKEY,0,NOKEY
AB2 ,AB,1,6,1526,0,0,0,LTS0,0,0, 23028486.thl.jpg ,NOKEY,0,NOKEY
AB2 ,AB,1,6,1527,1,1,1,LTS0,990,1, 23028486.thl.jpg ,SPACE,990,SPACE
AB2 ,AB,1,6,1528,0,0,0,LTS0,0,0, Aclock285.jpg ,NOKEY,0,NOKEY
AB2 ,AB,1,6,1529,0,0,0,LTS0,0,0, AWASHCLOT.jpg ,NOKEY,0,NOKEY
AB2 ,AB,1,6,1530,0,0,0,LTS0,0,0, 35310232.thl.jpg ,NOKEY,0,NOKEY
AB2 ,AB,1,6,1531,0,0,0,LTS0,0,0, 26387690.thl.jpg ,NOKEY,0,NOKEY
AB2 ,AB,1,6,1532,0,0,0,LTS0,0,0, Aflyingeagle9.jpg ,NOKEY,0,NOKEY
AB2 ,AB,1,6,1533,0,0,0,LTS0,0,0, muffin2.jpg ,NOKEY,0,NOKEY
AB2 ,AB,1,6,1534,0,0,0,LTS0,0,0, Apolarbear5.jpg ,NOKEY,0,NOKEY
AB2 ,AB,1,6,1535,0,0,0,LTS0,0,0, AHARPSIC5.jpg ,NOKEY,0,NOKEY
AB2 ,AB,1,6,1536,0,0,0,LTS0,0,0, Acactusplant.jpg ,NOKEY,0,NOKEY
AB2 ,AB,1,6,1537,0,0,0,LTS0,0,0, APINGPON3.jpg ,NOKEY,0,NOKEY
AB2 ,AB,1,6,1538,0,0,0,LTS0,0,0, AELEPHAN7.jpg ,NOKEY,0,NOKEY
AB2 ,AB,1,6,1539,0,0,0,LTS0,0,0, 22875816.thl.jpg ,NOKEY,0,NOKEY
AB2 ,AB,1,6,1540,0,0,0,LTS0,0,0, Acroissant.jpg ,NOKEY,0,NOKEY
AB2 ,AB,1,6,1542,0,0,0,LTS0,0,0, 15870946.thl.jpg ,NOKEY,0,NOKEY
AB2 ,AB,1,6,1543,1,1,1,LTS0,930,1_1-first, 15870946.thl.jpg ,SPACE,930,SPACE
AB2 ,AB,1,6,1544,0,0,0,LTS0,0,0, batslct.jpg ,NOKEY,0,NOKEY
AB2 ,AB,1,6,1545,0,0,0,LTS0,0,0, Afoodgrinder2.jpg ,NOKEY,0,NOKEY
AB2 ,AB,1,6,1546,0,0,0,LTS0,0,0, AMOUSETOY.jpg ,NOKEY,0,NOKEY
AB2 ,AB,1,6,1547,0,0,0,LTS0,0,0, 22869852.thl.jpg ,NOKEY,0,NOKEY
AB2 ,AB,1,6,1548,0,0,0,LTS0,0,0, AHAMPER.jpg ,NOKEY,0,NOKEY
AB2 ,AB,1,6,1549,0,0,0,LTS0,0,0, 8055554.thl.jpg ,NOKEY,0,NOKEY
AB2 ,AB,1,6,1550,0,0,0,LTS0,0,0, Acomputer9.jpg ,NOKEY,0,NOKEY
AB2 ,AB,1,6,1551,0,0,0,LTS0,0,0, Aslippers2.jpg ,NOKEY,0,NOKEY
AB2 ,AB,1,6,1552,0,0,0,LTS0,0,0, Aheadlightan2.jpg ,NOKEY,0,NOKEY
AB2 ,AB,1,6,1553,0,0,0,LTS0,0,0, AGARBCAN.jpg ,NOKEY,0,NOKEY
AB2 ,AB,1,6,1554,0,0,0,LTS0,0,0, ACHESSPI4.jpg ,NOKEY,0,NOKEY
AB2 ,AB,1,6,1555,0,0,0,LTS0,0,0, mascara.jpg ,NOKEY,0,NOKEY
AB2 ,AB,1,6,1556,0,0,0,LTS0,0,0, APERSRUG.jpg ,NOKEY,0,NOKEY
AB2 ,AB,1,6,1557,0,0,0,LTS0,0,0, AELECOVER.jpg ,NOKEY,0,NOKEY
AB2 ,AB,1,6,1558,16,1,1,LTS0,1490,16_15-mul-0, 15870946.thl.jpg ,SPACE,1490,SPACE
AB2 ,AB,1,6,1559,0,0,0,LTS0,0,0, Atool221.jpg ,NOKEY,0,NOKEY
AB2 ,AB,1,6,1560,0,0,0,LTS0,0,0, AFRAME15.jpg ,NOKEY,0,NOKEY
AB2 ,AB,1,6,1561,0,0,0,LTS0,0,0, ACHINCHI4.jpg ,NOKEY,0,NOKEY
AB2 ,AB,1,6,1562,0,0,0,LTS0,0,0, Atoyblocks.jpg ,NOKEY,0,NOKEY
AB2 ,AB,1,6,1563,0,0,0,LTS0,0,0, Adiscoball2.jpg ,NOKEY,0,NOKEY
AB2 ,AB,1,6,1564,0,0,0,LTS0,0,0, Abrasscr2.jpg ,NOKEY,0,NOKEY
AB2 ,AB,1,6,1565,0,0,0,LTS0,0,0, Aantiquephon2.jpg ,NOKEY,0,NOKEY
AB2 ,AB,1,6,1566,128,1,1,LTS0,1060,00-across0, asparagus.jpg ,SPACE,1060,SPACE
AB2 ,AB,1,6,1567,0,0,0,LTS0,0,0, ABONZAI9.jpg ,NOKEY,0,NOKEY
AB2 ,AB,1,6,1568,0,0,0,LTS0,0,0, ACAROSLI2.jpg ,NOKEY,0,NOKEY
AB2 ,AB,1,6,1569,0,0,0,LTS0,0,0, Aheadphone.jpg ,NOKEY,0,NOKEY
AB2 ,AB,1,6,1570,0,0,0,LTS0,0,0, ABOY.jpg ,NOKEY,0,NOKEY
AB2 ,AB,1,6,1571,0,0,0,LTS0,0,0, 8256348.thl.jpg ,NOKEY,0,NOKEY
AB2 ,AB,1,6,1573,0,0,0,LTS0,0,0, glassjuiceA.JPG ,NOKEY,0,NOKEY
AB2 ,AB,1,6,1574,4,1,1,LTS0,1140,4_4-first, ABOY.jpg ,SPACE,1140,SPACE
AB2 ,AB,1,6,1575,0,0,0,LTS0,0,0, 26374803.thl.jpg ,NOKEY,0,NOKEY
AB2 ,AB,1,6,1576,0,0,0,LTS0,0,0, APUMPCOOK.jpg ,NOKEY,0,NOKEY
AB2 ,AB,1,6,1577,0,0,0,LTS0,0,0, 26455183.thl.jpg ,NOKEY,0,NOKEY
AB2 ,AB,1,6,1578,0,0,0,LTS0,0,0, AJAR15.jpg ,NOKEY,0,NOKEY
AB2 ,AB,1,6,1579,0,0,0,LTS0,0,0, APANTRAC2.jpg ,NOKEY,0,NOKEY
AB2 ,AB,1,6,1580,0,0,0,LTS0,0,0, Atoywheels.jpg ,NOKEY,0,NOKEY
AB2 ,AB,1,6,1581,0,0,0,LTS0,0,0, Adecorati133.jpg ,NOKEY,0,NOKEY
AB2 ,AB,1,6,1582,0,0,0,LTS0,0,0, airhocckytable.jpg ,NOKEY,0,NOKEY
AB2 ,AB,1,6,1583,0,0,0,LTS0,0,0, ASHARK3.jpg ,NOKEY,0,NOKEY
AB2 ,AB,1,6,1584,0,0,0,LTS0,0,0, Acompass20.jpg ,NOKEY,0,NOKEY
AB2 ,AB,1,6,1585,0,0,0,LTS0,0,0, ASERVDIS8.jpg ,NOKEY,0,NOKEY
AB2 ,AB,1,6,1587,0,0,0,LTS0,0,0, Atoy51.jpg ,NOKEY,0,NOKEY
AB2 ,AB,1,6,1588,0,0,0,LTS0,0,0, ABALLER29.jpg ,NOKEY,0,NOKEY
AB2 ,AB,1,6,1589,0,0,0,LTS0,0,0, ATREEHOUS.jpg ,NOKEY,0,NOKEY
AB2 ,AB,1,6,1590,0,0,0,LTS0,0,0, Abird5.jpg ,NOKEY,0,NOKEY
AB2 ,AB,1,6,1591,0,0,0,LTS0,0,0, tofu.jpg ,NOKEY,0,NOKEY
